subj block trialnr stim wnw freq resp RT correct
S1 1 1 schork 2 0 1 663.8 0
S1 1 2 smeris 1 5,341176471 1 564.7 1
S1 1 3 jargon 1 4,094117647 1 684.2 1
S1 1 4 getij 1 3,976470588 1 642.7 1
S1 1 5 zindig 2 0 2 866.3 1
S1 1 6 kablet 2 0 2 750.9 1
S1 1 7 bans 2 0 2 728.7 1
S1 1 8 kinds 1 1,623529412 2 586.8 0
S1 1 9 wenx 2 0 2 470.3 1
S1 1 10 pyfama 2 0 2 552.9 1
S1 1 11 azen 1 1,764705882 2 453 0
S1 1 12 jury 1 3,835294118 1 462.3 1
S1 1 13 zegel 1 3,529411765 2 425.1 0
S1 1 14 typen 1 3,623529412 1 693.1 1
S1 1 15 bilar 2 0 2 528.4 1
S1 1 16 tagel 2 0 2 558.4 1
S1 1 17 panter 1 3,529411765 2 415.4 0
S1 1 18 zide 2 0 2 524.1 1
S1 1 19 hendel 1 1,882352941 2 617 0
S1 1 20 ponk 2 0 1 633.5 0
S1 1 21 pens 1 2,329411765 1 500.8 1
S1 1 22 decar 2 0 2 502.7 1
S1 1 23 merg 1 3,741176471 2 588 0
S1 1 24 paadje 1 1,905882353 1 536.3 1
S1 1 25 ronnik 2 0 2 610 1
S1 1 26 hoera 1 3,905882353 1 547.7 1
S1 1 27 spons 1 4,282352941 2 535 0
S1 1 28 wesp 1 4,070588235 1 560 1
S1 1 29 klaup 2 0 2 525 1
S1 1 30 muil 1 3,364705882 1 589.6 1
S1 1 31 vlicht 2 0 2 478.9 1
S1 1 32 sjaam 2 0 1 570.2 0
S1 1 33 rabbi 1 2,305882353 1 733.5 1
S1 1 34 sooie 2 0 2 508 1
S1 1 35 ruipen 2 0 1 675.4 0
S1 1 36 roen 2 0 2 734.9 1
S1 1 37 stoos 2 0 2 527 1
S1 1 38 beding 1 4,329411765 1 613.1 1
S1 1 39 clown 1 4,752941176 1 651.3 1
S1 1 40 amtrek 2 0 2 603.3 1
S1 1 41 bode 1 3,788235294 1 760.4 1
S1 1 42 dagma 2 0 2 704.5 1
S1 1 43 kapje 1 2,023529412 1 825.2 1
S1 1 44 miniem 1 3,905882353 2 851.1 0
S1 1 45 joelen 1 4,352941176 2 561.1 0
S1 1 46 hilt 2 0 1 475.9 0
S1 1 47 bult 1 4,211764706 1 483.3 1
S1 1 48 belk 2 0 2 499.3 1
S1 1 49 duik 1 1,929411765 1 425.2 1
S1 1 50 trio 1 3,223529412 1 523.5 1
S1 1 51 klim 1 2,023529412 1 492.7 1
S1 1 52 deppen 1 1,6 2 408.1 0
S1 1 53 lorst 2 0 2 776.5 1
S1 1 54 strik 1 4,635294118 1 522.4 1
S1 1 55 uitzet 1 1,129411765 2 478.4 0
S1 1 56 goer 2 0 2 667.4 1
S1 1 57 fasje 2 0 2 602.7 1
S1 1 58 zanger 1 5,411764706 1 486.7 1
S1 1 59 moes 1 1,223529412 2 600.7 0
S1 1 60 plaag 1 3,411764706 1 416.3 1
S1 1 61 vlijt 1 2,447058824 1 452.7 1
S1 1 62 bankje 1 3,223529412 1 452.8 1
S1 1 63 stees 2 0 2 521.1 1
S1 1 64 polder 1 4,776470588 1 469.8 1
S1 1 65 breik 2 0 1 680.5 0
S1 1 66 gedag 1 2,047058824 1 633.1 1
S1 1 67 invoer 1 5,435294118 2 506 0
S1 1 68 krap 1 4,823529412 2 588.6 0
S1 1 69 boffen 1 2,564705882 1 660.2 1
S1 1 70 ruusen 2 0 2 517.2 1
S1 1 71 eber 2 0 2 448.7 1
S1 1 72 safari 1 1,082352941 1 788.8 1
S1 1 73 aanket 2 0 2 703.7 1
S1 1 74 galop 1 4,235294118 2 487.3 0
S1 1 75 benul 1 3,623529412 1 631.6 1
S1 1 76 tact 1 4,447058824 1 523.9 1
S1 1 77 opiam 2 0 2 595.9 1
S1 1 78 zeelde 2 0 2 553.9 1
S1 1 79 room 1 5,458823529 1 388.6 1
S1 1 80 parxum 2 0 2 446.8 1
S1 1 81 epele 2 0 2 461.6 1
S1 1 82 maars 2 0 2 435.2 1
S1 1 83 tulp 1 2,776470588 1 468 1
S1 1 84 revers 1 2,635294118 1 321.1 1
S1 1 85 cuur 2 0 1 419.6 0
S1 1 86 barok 1 2,4 1 529 1
S1 1 87 opsten 2 0 2 653.1 1
S1 1 88 dond 2 0 2 585.5 1
S1 1 89 gewend 1 1,576470588 1 474.2 1
S1 1 90 durst 2 0 2 545.7 1
S1 1 91 schilp 2 0 1 511.4 0
S1 1 92 ferm 1 4,611764706 2 730.8 0
S1 1 93 afbruk 2 0 1 651.4 0
S1 1 94 ledig 1 3,035294118 2 468.8 0
S1 1 95 bestak 2 0 2 717.3 1
S1 1 96 wuzig 2 0 2 545.4 1
S1 1 97 entree 1 4,658823529 1 532.1 1
S1 1 98 puid 2 0 2 575 1
S1 1 99 behept 1 2,164705882 2 440.9 0
S1 1 100 faam 1 5,129411765 2 569.1 0
S1 1 101 zangst 2 0 2 527.7 1
S1 1 102 maling 1 2,8 2 595.8 0
S1 1 103 alpoor 2 0 2 523.3 1
S1 1 104 mopen 2 0 1 538.8 0
S1 1 105 ploei 2 0 1 533.5 0
S1 1 106 fiscus 1 3,929411765 2 439.3 0
S1 1 107 puilen 1 4,682352941 1 559.4 1
S1 1 108 slaw 2 0 2 536.1 1
S1 1 109 lappen 1 4,305882353 2 582 0
S1 1 110 vaccin 1 0,705882353 1 37.8 1
S1 1 111 stokje 1 3,788235294 1 1003 1
S1 1 112 kledij 1 3,811764706 1 724.8 1
S1 1 113 orzet 2 0 2 598.4 1
S1 1 114 geide 2 0 2 596.1 1
S1 1 115 senior 1 1,552941176 1 590 1
S1 1 116 cultus 1 5,482352941 2 593 0
S1 1 117 bagen 2 0 2 526.2 1
S1 1 118 glak 2 0 2 574 1
S1 1 119 waald 2 0 1 490.1 0
S1 1 120 kwaken 1 2,752941176 1 563.5 1
S1 1 121 flunk 2 0 2 610.1 1
S1 1 122 ralief 2 0 2 591.3 1
S1 1 123 kodeet 2 0 2 558.7 1
S1 1 124 lerder 2 0 1 593.2 0
S1 1 125 asfelt 2 0 2 525.8 1
S1 1 126 raspen 1 4,776470588 1 675.6 1
S1 1 127 dreed 2 0 2 455.9 1
S1 1 128 hirst 2 0 2 497.2 1
S1 1 129 kwiek 1 3,529411765 1 777.2 1
S1 1 130 jeer 2 0 2 604.3 1
S1 1 131 loyaal 1 4,023529412 2 560.3 0
S1 1 132 drumer 2 0 1 468.9 0
S1 1 133 idylle 1 2,423529412 2 534.4 0
S1 1 134 glazig 1 4,329411765 1 594.8 1
S1 1 135 aupo 2 0 2 563.7 1
S1 1 136 versus 1 4,494117647 1 589 1
S1 1 137 oloud 2 0 2 455 1
S1 1 138 leuze 1 4,4 1 561.7 1
S1 1 139 cement 1 4,329411765 1 636.4 1
S1 1 140 danser 1 4,070588235 1 574.5 1
S1 1 141 legen 1 3,788235294 2 561.8 0
S1 1 142 iptiek 2 0 2 582.5 1
S1 1 143 stiem 2 0 1 465.3 0
S1 1 144 hiemen 2 0 2 600.8 1
S1 1 145 sloert 2 0 1 540.2 0
S1 1 146 wraai 2 0 2 611.1 1
S1 1 147 elan 1 3,623529412 2 439.3 0
S1 1 148 veeg 1 3,529411765 1 569.2 1
S1 1 149 zomers 1 5,482352941 1 439.5 1
S1 1 150 schut 1 1,952941176 1 555.1 1
S1 1 151 fuif 1 1,788235294 2 383.8 0
S1 1 152 krong 2 0 1 534.9 0
S1 1 153 snik 1 4 1 641.8 1
S1 1 154 charte 2 0 2 514.6 1
S1 1 155 vruger 2 0 1 595.5 0
S1 1 156 vinnig 1 5,223529412 1 890.4 1
S1 1 157 sjerp 1 1,458823529 2 514.1 0
S1 1 158 wossen 2 0 1 556.4 0
S1 1 159 roedel 1 1,082352941 1 928.7 1
S1 1 160 odem 2 0 2 606.2 1
S1 1 161 kastje 1 3,858823529 1 517.5 1
S1 1 162 gilde 1 4,4 1 567.5 1
S1 1 163 rimboe 1 1,505882353 1 676.9 1
S1 1 164 troun 2 0 2 612.4 1
S1 1 165 toorn 1 4,282352941 2 531.7 0
S1 1 166 haaien 1 0,352941176 1 551.3 1
S1 1 167 vioel 2 0 2 715.5 1
S1 1 168 brum 2 0 2 655.5 1
S1 1 169 tobben 1 5,011764706 2 569.3 0
S1 1 170 alkook 2 0 2 640.6 1
S1 1 171 pastor 1 2,541176471 1 486.4 1
S1 1 172 nauw 1 4,470588235 1 663.6 1
S1 1 173 snoken 2 0 1 551.4 0
S1 1 174 salode 2 0 2 590.3 1
S1 1 175 kaveel 2 0 2 520.7 1
S1 1 176 tedeer 2 0 1 675.7 0
S1 1 177 sloep 1 5,388235294 2 544.4 0
S1 1 178 sluis 1 4,211764706 1 541 1
S1 1 179 strot 1 4,470588235 1 485.1 1
S1 1 180 puzzel 1 3,647058824 1 616.5 1
S1 1 181 vouw 1 3,529411765 1 653.1 1
S1 1 182 bijval 1 3,811764706 1 510.8 1
S1 1 183 kossa 2 0 2 594.8 1
S1 1 184 grocht 2 0 1 680.5 0
S1 1 185 inlal 2 0 2 689.6 1
S1 1 186 brons 1 2,870588235 2 644.6 0
S1 1 187 nuig 2 0 2 528.5 1
S1 1 188 hark 1 1,529411765 1 664.1 1
S1 1 189 doer 2 0 2 638.8 1
S1 1 190 dikte 1 4,235294118 1 483.5 1
S1 1 191 guik 2 0 2 512.6 1
S1 1 192 tweeze 2 0 2 580.4 1
S1 1 193 wuren 2 0 2 721.7 1
S1 1 194 pikant 1 5,482352941 2 503.7 0
S1 1 195 nijtje 2 0 2 604.2 1
S1 1 196 wokker 2 0 2 644.9 1
S1 1 197 vocta 2 0 2 447.3 1
S1 1 198 zwaluw 1 4,8 1 607.9 1
S1 1 199 nalm 2 0 2 507.7 1
S1 1 200 finds 2 0 2 471.5 1
S1 1 201 geroep 1 4,141176471 1 647.4 1
S1 1 202 orinje 2 0 2 500.5 1
S1 1 203 fjord 1 3,882352941 2 502.2 0
S1 1 204 kereik 2 0 2 527.1 1
S1 1 205 solide 1 5,458823529 2 452.6 0
S1 1 206 knavel 2 0 1 565.7 0
S1 1 207 laande 2 0 2 402.4 1
S1 1 208 hamp 2 0 2 603.9 1
S1 1 209 hoken 2 0 2 509.7 1
S1 1 210 melken 1 4,141176471 1 474.2 1
S1 1 211 civiek 2 0 2 437.6 1
S1 1 212 spleef 2 0 2 490.8 1
S1 1 213 welp 1 1,741176471 1 538.4 1
S1 1 214 barmer 2 0 2 515.1 1
S1 1 215 detter 2 0 2 520.6 1
S1 1 216 loof 1 2,423529412 1 501.7 1
S1 1 217 wasbak 1 3,788235294 2 450.9 0
S1 1 218 ganre 2 0 2 552.4 1
S1 1 219 orakel 1 2,517647059 2 582.2 0
S1 1 220 belug 2 0 2 616.7 1
S1 1 221 suber 2 0 2 605.2 1
S1 1 222 huinig 2 0 2 494.2 1
S1 1 223 wago 2 0 2 621 1
S1 1 224 stru 2 0 2 565.6 1
S1 1 225 peide 2 0 2 498 1
S1 1 226 tarwe 1 4,8 1 614.4 1
S1 1 227 uven 2 0 2 478 1
S1 1 228 pend 2 0 2 630.9 1
S1 1 229 domweg 1 5,176470588 1 535.5 1
S1 1 230 miegen 2 0 2 531 1
S1 1 231 accu 1 1,317647059 1 487.9 1
S1 1 232 cier 2 0 2 559.4 1
S1 1 233 index 1 4,941176471 2 482.1 0
S1 1 234 honen 1 5,247058824 2 577.1 0
S1 1 235 murt 2 0 2 545.2 1
S1 1 236 linter 2 0 2 492.7 1
S1 1 237 konk 2 0 2 547.1 1
S1 1 238 chloor 1 0,8 1 599.5 1
S1 1 239 lonig 2 0 2 490.9 1
S1 1 240 pach 2 0 1 485.7 0
S1 1 241 zuid 1 4,705882353 1 563.2 1
S1 1 242 zoer 2 0 2 571.9 1
S1 1 243 bres 1 3,952941176 2 464.6 0
S1 1 244 meker 2 0 2 672.7 1
S1 1 245 trec 2 0 2 466.2 1
S1 1 246 hang 1 3,623529412 1 541.2 1
S1 1 247 zinnen 1 4,282352941 1 586.9 1
S1 1 248 gemeld 1 4,541176471 2 410.5 0
S1 1 249 korps 1 3,741176471 1 664.6 1
S1 1 250 lakei 1 2,823529412 1 497.4 1
S1 1 251 optie 1 2,823529412 1 512.6 1
S1 1 252 zwaten 2 0 1 679.5 0
S1 1 253 mank 1 3,788235294 2 455.7 0
S1 1 254 allure 1 5,223529412 2 518 0
S1 1 255 dynamo 1 0,729411765 1 646.9 1
S1 1 256 zondje 2 0 1 538.4 0
S1 1 257 postes 2 0 1 491.1 0
S1 1 258 tekje 2 0 2 692.4 1
S1 1 259 kremp 2 0 2 558.9 1
S1 1 260 tiek 2 0 2 443.1 1
S1 1 261 birst 2 0 2 459.2 1
S1 1 262 slee 1 1,035294118 1 484 1
S1 1 263 toeter 1 1,764705882 1 463.9 1
S1 1 264 forel 1 3,105882353 2 488.3 0
S1 1 265 angel 1 4,517647059 1 600.7 1
S1 1 266 sessie 1 3,176470588 1 589.7 1
S1 1 267 kokend 1 3,952941176 1 566.2 1
S1 1 268 offen 2 0 2 502.7 1
S1 1 269 wreef 1 1,905882353 2 491.6 0
S1 1 270 scheks 2 0 2 630.1 1
S1 1 271 kers 1 4,658823529 1 841.4 1
S1 1 272 tonnel 2 0 2 783.9 1
S1 1 273 plauw 2 0 2 491.9 1
S1 1 274 bluier 2 0 2 472.5 1
S1 1 275 tist 2 0 2 441.9 1
S1 1 276 lieb 2 0 2 452.6 1
S1 1 277 fesie 2 0 2 548.1 1
S1 1 278 kampen 1 3,458823529 1 595.6 1
S1 1 279 graat 1 2,023529412 1 581.1 1
S1 1 280 divun 2 0 2 557.1 1
S1 1 281 lemmet 1 2,635294118 2 599.6 0
S1 1 282 schoon 1 3,552941176 1 501.7 1
S1 1 283 gazet 1 1,858823529 2 730.7 0
S1 1 284 ripen 2 0 2 723.3 1
S1 1 285 kelom 2 0 2 452.3 1
S1 1 286 kluis 1 4,494117647 1 479.3 1
S1 1 287 astma 1 3,882352941 1 428.7 1
S1 1 288 parket 1 4,258823529 1 674.2 1
S1 1 289 defect 1 3,388235294 1 555 1
S1 1 290 caak 2 0 2 527.6 1
S1 1 291 dijp 2 0 2 687.9 1
S1 1 292 lomp 1 3,058823529 2 515.3 0
S1 1 293 kreek 1 2,588235294 2 673.9 0
S1 1 294 vruik 2 0 2 590.3 1
S1 1 295 reuk 1 5,388235294 1 687.9 1
S1 1 296 lannen 2 0 2 725.1 1
S1 1 297 kuip 1 4,470588235 1 512.9 1
S1 1 298 kajel 2 0 2 552.8 1
S1 1 299 napen 2 0 2 649.8 1
S1 1 300 koom 2 0 1 584.3 0
S1 1 301 tros 1 5,341176471 1 552.4 1
S1 1 302 gros 1 2,8 1 588.6 1
S1 1 303 graak 2 0 2 529.5 1
S1 1 304 hurken 1 3,882352941 1 578.9 1
S1 1 305 nijd 1 1,929411765 2 465.1 0
S1 1 306 blaam 1 1,835294118 1 607.3 1
S1 1 307 pion 1 2,117647059 2 541 0
S1 1 308 rier 2 0 2 805.7 1
S1 1 309 regie 1 2,823529412 1 818.1 1
S1 1 310 zuik 2 0 2 602.2 1
S1 1 311 boof 2 0 1 551.1 0
S1 1 312 woelig 1 3,6 1 652.9 1
S1 1 313 hoeden 1 0,305882353 1 485.9 1
S1 1 314 snoet 1 1,741176471 1 602.4 1
S1 1 315 vlerk 1 1,2 1 484.9 1
S1 1 316 spade 1 1,858823529 2 557.4 0
S1 1 317 vees 2 0 1 582.6 0
S1 1 318 vieet 2 0 2 507.2 1
S1 1 319 kukker 2 0 2 605.8 1
S1 1 320 smemen 2 0 1 523.2 0
S1 1 321 moelas 2 0 2 566.8 1
S1 1 322 jorist 2 0 2 517.9 1
S1 1 323 proper 1 3,741176471 2 466.8 0
S1 1 324 eicel 1 5,411764706 1 745.1 1
S1 1 325 hubeur 2 0 2 454.9 1
S1 1 326 houtje 1 4,894117647 1 522.5 1
S1 1 327 deman 2 0 2 517.6 1
S1 1 328 apiche 2 0 2 476.9 1
S1 1 329 grijt 2 0 2 646.5 1
S1 1 330 borg 1 2,847058824 2 533.4 0
S1 1 331 ezol 2 0 2 648.2 1
S1 1 332 prelie 2 0 2 764.1 1
S1 1 333 schul 2 0 2 238.4 1
S1 1 334 mistie 2 0 2 525.8 1
S1 1 335 gaag 2 0 2 551.5 1
S1 1 336 rieten 1 4,258823529 2 560.6 0
S1 1 337 ruis 1 1,764705882 2 569.9 0
S1 1 338 album 1 4,094117647 1 601.9 1
S1 1 339 armoe 1 3,152941176 1 550.1 1
S1 1 340 steppe 1 3,717647059 2 622.8 0
S1 1 341 zeim 2 0 2 660.8 1
S1 1 342 walmen 1 3,576470588 1 710.3 1
S1 1 343 draf 1 3,811764706 1 553.2 1
S1 1 344 noemer 1 4,847058824 2 757.1 0
S1 1 345 aanhef 1 3,058823529 2 458 0
S1 1 346 wimpel 1 1,694117647 1 510.4 1
S1 1 347 ontbag 2 0 2 585.9 1
S1 1 348 baars 1 1,576470588 1 566.7 1
S1 1 349 krot 1 3,129411764 2 732.4 0
S1 1 350 noek 2 0 2 660.7 1
S1 1 351 zagen 1 5,035294118 1 497.3 1
S1 1 352 gesoe 2 0 2 479.2 1
S1 1 353 blende 2 0 2 523 1
S1 1 354 vernal 2 0 2 545.5 1
S1 1 355 staats 1 4,047058824 1 451.2 1
S1 1 356 tolk 1 4,988235294 1 503.9 1
S1 1 357 lyceum 1 3,811764706 1 553.8 1
S1 1 358 morsen 1 4,988235294 2 565.9 0
S1 1 359 proei 2 0 1 657.5 0
S1 1 360 limiet 1 2,588235294 2 584.3 0
S1 1 361 kiedje 2 0 2 583.8 1
S1 1 362 weids 1 3,905882353 2 606.2 0
S1 1 363 schede 1 3,152941176 2 544.9 0
S1 1 364 oase 1 3,811764706 1 673.7 1
S1 1 365 jurig 2 0 2 679.4 1
S1 1 366 butje 2 0 2 654.8 1
S1 1 367 bever 1 1,176470588 1 664.6 1
S1 1 368 weel 2 0 2 563.4 1
S1 1 369 onwaar 1 3,623529412 2 524.3 0
S1 1 370 reen 2 0 2 631.1 1
S1 1 371 kopij 1 2,211764706 1 554.8 1
S1 1 372 waan 1 5,458823529 1 732.1 1
S1 1 373 rinden 2 0 2 532.1 1
S1 1 374 bortie 2 0 2 650.9 1
S1 1 375 spijl 1 3,764705882 2 510.2 0
S1 1 376 wijlen 1 3,6 1 509.1 1
S1 1 377 lijmen 1 5,082352941 1 471.4 1
S1 1 378 winven 2 0 2 609.9 1
S1 1 379 porto 1 2,305882353 1 608.5 1
S1 1 380 pruken 2 0 2 862.8 1
S1 1 381 etoge 2 0 2 366.2 1
S1 1 382 pluis 1 1,294117647 1 510.2 1
S1 1 383 umloop 2 0 2 577.1 1
S1 1 384 bekker 2 0 1 475.6 0
S1 1 385 knol 1 4,470588235 1 510.4 1
S1 1 386 rasijn 2 0 2 563.9 1
S1 1 387 kraal 1 4,305882353 1 532.3 1
S1 1 388 remp 2 0 1 572.1 0
S1 1 389 givaar 2 0 2 707.3 1
S1 1 390 geming 2 0 2 660.2 1
S1 1 391 prok 2 0 1 716.3 0
S1 1 392 telen 1 2,023529412 2 530.3 0
S1 1 393 helte 2 0 2 690.9 1
S1 1 394 gezwil 2 0 2 606.8 1
S1 1 395 agesda 2 0 2 539.3 1
S1 1 396 vezel 1 5,482352941 1 631.9 1
S1 1 397 imver 2 0 2 476.7 1
S1 1 398 etmaal 1 4,752941176 2 587.6 0
S1 1 399 vargif 2 0 2 589.4 1
S1 1 400 boeran 2 0 2 537.8 1
S1 2 1 elan 1 3,623529412 2 581.5 0
S1 2 2 orzet 2 0 2 691.9 1
S1 2 3 nijtje 2 0 2 654 1
S1 2 4 sluis 1 4,211764706 1 505 1
S1 2 5 noemer 1 4,847058824 1 516.9 1
S1 2 6 murt 2 0 2 495.1 1
S1 2 7 dagma 2 0 2 562.1 1
S1 2 8 durst 2 0 2 583.8 1
S1 2 9 proei 2 0 2 481.5 1
S1 2 10 onwaar 1 3,623529412 1 569.6 1
S1 2 11 hubeur 2 0 2 488.1 1
S1 2 12 etoge 2 0 2 481 1
S1 2 13 goer 2 0 2 495.6 1
S1 2 14 jury 1 3,835294118 1 579 1
S1 2 15 tist 2 0 2 425.1 1
S1 2 16 fasje 2 0 2 456.1 1
S1 2 17 defect 1 3,388235294 1 517.8 1
S1 2 18 apiche 2 0 2 444.2 1
S1 2 19 lorst 2 0 1 487.7 0
S1 2 20 fesie 2 0 2 574.5 1
S1 2 21 rabbi 1 2,305882353 1 490 1
S1 2 22 porto 1 2,305882353 2 439.8 0
S1 2 23 rasijn 2 0 2 529.1 1
S1 2 24 schilp 2 0 2 625 1
S1 2 25 versus 1 4,494117647 2 426.6 0
S1 2 26 orinje 2 0 2 515.4 1
S1 2 27 moes 1 1,223529412 1 434.1 1
S1 2 28 veeg 1 3,529411765 2 444.5 0
S1 2 29 woelig 1 3,6 1 808.6 1
S1 2 30 vruger 2 0 2 547.6 1
S1 2 31 ruusen 2 0 2 526.2 1
S1 2 32 ploei 2 0 1 456.2 0
S1 2 33 tulp 1 2,776470588 2 405.8 0
S1 2 34 plauw 2 0 2 711.1 1
S1 2 35 jeer 2 0 2 425.7 1
S1 2 36 angel 1 4,517647059 1 441.8 1
S1 2 37 krong 2 0 1 444.9 0
S1 2 38 pyfama 2 0 2 547.8 1
S1 2 39 sessie 1 3,176470588 1 619.7 1
S1 2 40 nijd 1 1,929411765 2 433.8 0
S1 2 41 weel 2 0 2 535.5 1
S1 2 42 dynamo 1 0,729411765 1 499.5 1
S1 2 43 vees 2 0 2 397.3 1
S1 2 44 wenx 2 0 2 435.3 1
S1 2 45 muil 1 3,364705882 1 494.3 1
S1 2 46 weids 1 3,905882353 2 396.4 0
S1 2 47 jorist 2 0 2 534.1 1
S1 2 48 steppe 1 3,717647059 1 490.6 1
S1 2 49 panter 1 3,529411765 2 381.8 0
S1 2 50 oase 1 3,811764706 1 698.7 1
S1 2 51 zwaten 2 0 2 386.5 1
S1 2 52 barok 1 2,4 2 427.8 0
S1 2 53 uven 2 0 2 558.9 1
S1 2 54 amtrek 2 0 2 497.9 1
S1 2 55 napen 2 0 2 611 1
S1 2 56 glak 2 0 2 462.4 1
S1 2 57 fjord 1 3,882352941 1 512.8 1
S1 2 58 mistie 2 0 2 454.6 1
S1 2 59 roen 2 0 2 530.3 1
S1 2 60 gros 1 2,8 2 430.2 0
S1 2 61 zoer 2 0 2 472.5 1
S1 2 62 draf 1 3,811764706 1 443.3 1
S1 2 63 klaup 2 0 2 464.4 1
S1 2 64 trio 1 3,223529412 1 437.5 1
S1 2 65 rieten 1 4,258823529 2 415.4 0
S1 2 66 senior 1 1,552941176 2 452.5 0
S1 2 67 lappen 1 4,305882353 1 538.5 1
S1 2 68 rimboe 1 1,505882353 1 548.3 1
S1 2 69 pastor 1 2,541176471 1 474.4 1
S1 2 70 korps 1 3,741176471 2 601 0
S1 2 71 faam 1 5,129411765 1 42.5 1
S1 2 72 kokend 1 3,952941176 1 574.2 1
S1 2 73 gedag 1 2,047058824 1 547.6 1
S1 2 74 ralief 2 0 2 557.4 1
S1 2 75 geming 2 0 2 512.7 1
S1 2 76 waan 1 5,458823529 1 492.3 1
S1 2 77 optie 1 2,823529412 1 483.6 1
S1 2 78 meker 2 0 2 618.1 1
S1 2 79 vocta 2 0 2 497 1
S1 2 80 moelas 2 0 2 466.3 1
S1 2 81 index 1 4,941176471 2 531 0
S1 2 82 puid 2 0 2 510.3 1
S1 2 83 hang 1 3,623529412 1 504.2 1
S1 2 84 honen 1 5,247058824 1 526.7 1
S1 2 85 schut 1 1,952941176 1 509.1 1
S1 2 86 tekje 2 0 1 498.5 0
S1 2 87 civiek 2 0 2 500.9 1
S1 2 88 zeelde 2 0 2 546.2 1
S1 2 89 loof 1 2,423529412 1 494.9 1
S1 2 90 givaar 2 0 2 419.4 1
S1 2 91 tolk 1 4,988235294 1 518.7 1
S1 2 92 peide 2 0 2 494.1 1
S1 2 93 uitzet 1 1,129411765 1 574.5 1
S1 2 94 eicel 1 5,411764706 2 377.8 0
S1 2 95 rier 2 0 1 610.8 0
S1 2 96 haaien 1 0,352941176 1 599.6 1
S1 2 97 offen 2 0 2 619.4 1
S1 2 98 sjaam 2 0 2 716.3 1
S1 2 99 umloop 2 0 2 541.7 1
S1 2 100 loyaal 1 4,023529412 1 638.8 1
S1 2 101 chloor 1 0,8 2 476.9 0
S1 2 102 stoos 2 0 1 506.9 0
S1 2 103 kajel 2 0 2 532.8 1
S1 2 104 blende 2 0 2 639.4 1
S1 2 105 lonig 2 0 2 569.2 1
S1 2 106 geroep 1 4,141176471 1 555.5 1
S1 2 107 eber 2 0 2 609.7 1
S1 2 108 kopij 1 2,211764706 2 455.5 0
S1 2 109 melken 1 4,141176471 1 539.1 1
S1 2 110 aanhef 1 3,058823529 1 513.3 1
S1 2 111 zomers 1 5,482352941 1 487 1
S1 2 112 prok 2 0 2 595.9 1
S1 2 113 belug 2 0 2 499 1
S1 2 114 kastje 1 3,858823529 1 626.6 1
S1 2 115 idylle 1 2,423529412 1 590.8 1
S1 2 116 safari 1 1,082352941 1 542.9 1
S1 2 117 gemeld 1 4,541176471 1 585.4 1
S1 2 118 gewend 1 1,576470588 1 597.1 1
S1 2 119 remp 2 0 2 636.3 1
S1 2 120 zinnen 1 4,282352941 1 523.5 1
S1 2 121 zondje 2 0 2 552.6 1
S1 2 122 dijp 2 0 2 586.5 1
S1 2 123 duik 1 1,929411765 1 538.8 1
S1 2 124 lyceum 1 3,811764706 1 577.7 1
S1 2 125 knavel 2 0 2 675.7 1
S1 2 126 wesp 1 4,070588235 1 537.6 1
S1 2 127 deppen 1 1,6 2 483.4 0
S1 2 128 lieb 2 0 2 554.5 1
S1 2 129 bans 2 0 1 578.9 0
S1 2 130 charte 2 0 2 603.3 1
S1 2 131 ganre 2 0 2 624.4 1
S1 2 132 vezel 1 5,482352941 2 459.3 0
S1 2 133 tarwe 1 4,8 1 498 1
S1 2 134 stiem 2 0 2 493.9 1
S1 2 135 oloud 2 0 2 665.9 1
S1 2 136 brons 1 2,870588235 1 679.9 1
S1 2 137 aanket 2 0 2 679.8 1
S1 2 138 invoer 1 5,435294118 1 559.1 1
S1 2 139 geide 2 0 2 550.7 1
S1 2 140 epele 2 0 2 527.2 1
S1 2 141 dond 2 0 2 526.3 1
S1 2 142 cuur 2 0 2 501 1
S1 2 143 revers 1 2,635294118 2 600.9 0
S1 2 144 jargon 1 4,094117647 1 685.3 1
S1 2 145 pluis 1 1,294117647 1 503.1 1
S1 2 146 legen 1 3,788235294 2 564 0
S1 2 147 butje 2 0 2 484.6 1
S1 2 148 cier 2 0 2 443.2 1
S1 2 149 zanger 1 5,411764706 1 493.4 1
S1 2 150 divun 2 0 2 482.2 1
S1 2 151 typen 1 3,623529412 1 474.3 1
S1 2 152 decar 2 0 2 506 1
S1 2 153 scheks 2 0 2 655.5 1
S1 2 154 pikant 1 5,482352941 2 426.5 0
S1 2 155 flunk 2 0 2 498.8 1
S1 2 156 maars 2 0 2 494 1
S1 2 157 reuk 1 5,388235294 2 470.7 0
S1 2 158 grocht 2 0 2 501.4 1
S1 2 159 vaccin 1 0,705882353 2 701.9 0
S1 2 160 raspen 1 4,776470588 2 514.4 0
S1 2 161 ontbag 2 0 2 596.8 1
S1 2 162 baars 1 1,576470588 1 553.8 1
S1 2 163 sjerp 1 1,458823529 2 517.7 0
S1 2 164 alpoor 2 0 2 574.1 1
S1 2 165 tros 1 5,341176471 1 459 1
S1 2 166 roedel 1 1,082352941 1 540.6 1
S1 2 167 linter 2 0 2 484.9 1
S1 2 168 zagen 1 5,035294118 1 514 1
S1 2 169 bestak 2 0 2 546.8 1
S1 2 170 boeran 2 0 2 480.5 1
S1 2 171 barmer 2 0 2 520.5 1
S1 2 172 gilde 1 4,4 1 542.4 1
S1 2 173 jurig 2 0 2 446.1 1
S1 2 174 zeim 2 0 2 551.8 1
S1 2 175 fuif 1 1,788235294 1 508.4 1
S1 2 176 spade 1 1,858823529 2 616.7 0
S1 2 177 domweg 1 5,176470588 1 520.9 1
S1 2 178 boffen 1 2,564705882 1 515.6 1
S1 2 179 stees 2 0 2 485.6 1
S1 2 180 allure 1 5,223529412 1 712.5 1
S1 2 181 schul 2 0 2 432.3 1
S1 2 182 clown 1 4,752941176 1 488.1 1
S1 2 183 room 1 5,458823529 1 567.1 1
S1 2 184 polder 1 4,776470588 1 497.6 1
S1 2 185 spijl 1 3,764705882 2 509.7 0
S1 2 186 welp 1 1,741176471 1 480.3 1
S1 2 187 schoon 1 3,552941176 1 543.1 1
S1 2 188 drumer 2 0 1 567.3 0
S1 2 189 sooie 2 0 2 568.5 1
S1 2 190 vruik 2 0 2 432.9 1
S1 2 191 accu 1 1,317647059 1 500.4 1
S1 2 192 blaam 1 1,835294118 2 460.9 0
S1 2 193 kluis 1 4,494117647 1 535.5 1
S1 2 194 doer 2 0 2 512.9 1
S1 2 195 krap 1 4,823529412 1 519.7 1
S1 2 196 hark 1 1,529411765 2 417.7 0
S1 2 197 bijval 1 3,811764706 1 521.9 1
S1 2 198 noek 2 0 2 544.9 1
S1 2 199 telen 1 2,023529412 1 586.2 1
S1 2 200 trec 2 0 2 518.9 1
S1 2 201 stru 2 0 2 552.3 1
S1 2 202 suber 2 0 2 483.1 1
S1 2 203 tiek 2 0 2 498.4 1
S1 2 204 tonnel 2 0 2 568.9 1
S1 2 205 limiet 1 2,588235294 1 575.8 1
S1 2 206 parket 1 4,258823529 1 461.6 1
S1 2 207 bankje 1 3,223529412 1 511.6 1
S1 2 208 wimpel 1 1,694117647 1 512.1 1
S1 2 209 hurken 1 3,882352941 1 491.9 1
S1 2 210 solide 1 5,458823529 2 638 0
S1 2 211 kreek 1 2,588235294 2 625.9 0
S1 2 212 hoeden 1 0,305882353 1 430 1
S1 2 213 deman 2 0 2 469.9 1
S1 2 214 nuig 2 0 2 528.4 1
S1 2 215 bever 1 1,176470588 1 427.8 1
S1 2 216 cultus 1 5,482352941 1 692 1
S1 2 217 hilt 2 0 2 621.4 1
S1 2 218 tagel 2 0 2 484.5 1
S1 2 219 hoera 1 3,905882353 1 501.8 1
S1 2 220 kers 1 4,658823529 1 647.5 1
S1 2 221 vernal 2 0 2 610.8 1
S1 2 222 helte 2 0 2 493.1 1
S1 2 223 wuzig 2 0 2 559.8 1
S1 2 224 kiedje 2 0 2 521.3 1
S1 2 225 zide 2 0 2 593.1 1
S1 2 226 vouw 1 3,529411765 1 422.5 1
S1 2 227 cement 1 4,329411765 2 418.9 0
S1 2 228 slee 1 1,035294118 1 570.4 1
S1 2 229 vioel 2 0 2 618.7 1
S1 2 230 kuip 1 4,470588235 2 532.2 0
S1 2 231 mopen 2 0 1 455 0
S1 2 232 puzzel 1 3,647058824 2 483.3 0
S1 2 233 kinds 1 1,623529412 1 883.9 1
S1 2 234 tobben 1 5,011764706 1 640.5 1
S1 2 235 postes 2 0 1 508.9 0
S1 2 236 strot 1 4,470588235 1 641.9 1
S1 2 237 zuid 1 4,705882353 2 517.2 0
S1 2 238 miniem 1 3,905882353 2 758.7 0
S1 2 239 orakel 1 2,517647059 1 748.3 1
S1 2 240 pach 2 0 2 667.4 1
S1 2 241 toeter 1 1,764705882 1 442 1
S1 2 242 schede 1 3,152941176 2 568.9 0
S1 2 243 lijmen 1 5,082352941 1 447.6 1
S1 2 244 laande 2 0 2 613.1 1
S1 2 245 slaw 2 0 1 507.2 0
S1 2 246 caak 2 0 2 575.9 1
S1 2 247 aupo 2 0 2 530 1
S1 2 248 ponk 2 0 1 463.9 0
S1 2 249 ronnik 2 0 2 630.6 1
S1 2 250 kereik 2 0 2 496.8 1
S1 2 251 benul 1 3,623529412 2 518.1 0
S1 2 252 alkook 2 0 2 707.4 1
S1 2 253 pruken 2 0 2 481.7 1
S1 2 254 vinnig 1 5,223529412 2 521.2 0
S1 2 255 spleef 2 0 2 632.8 1
S1 2 256 gezwil 2 0 1 454.1 0
S1 2 257 belk 2 0 2 511.1 1
S1 2 258 nauw 1 4,470588235 1 532.7 1
S1 2 259 opsten 2 0 1 502.8 0
S1 2 260 lerder 2 0 2 553.2 1
S1 2 261 kapje 1 2,023529412 1 527.9 1
S1 2 262 zegel 1 3,529411765 1 514.7 1
S1 2 263 odem 2 0 2 455 1
S1 2 264 leuze 1 4,4 1 560.9 1
S1 2 265 ledig 1 3,035294118 2 437.8 0
S1 2 266 troun 2 0 2 677.5 1
S1 2 267 spons 1 4,282352941 1 484.5 1
S1 2 268 ruis 1 1,764705882 2 524 0
S1 2 269 morsen 1 4,988235294 1 546.4 1
S1 2 270 bagen 2 0 2 565.6 1
S1 2 271 ezol 2 0 2 474.7 1
S1 2 272 vlicht 2 0 2 485.5 1
S1 2 273 huinig 2 0 2 667.7 1
S1 2 274 kelom 2 0 2 431.4 1
S1 2 275 joelen 1 4,352941176 1 440.9 1
S1 2 276 rinden 2 0 2 463.3 1
S1 2 277 schork 2 0 2 571.7 1
S1 2 278 ferm 1 4,611764706 2 498.8 0
S1 2 279 bilar 2 0 2 465.3 1
S1 2 280 finds 2 0 2 480.9 1
S1 2 281 kraal 1 4,305882353 1 476.3 1
S1 2 282 fiscus 1 3,929411765 2 458.3 0
S1 2 283 inlal 2 0 1 551 0
S1 2 284 pion 1 2,117647059 2 510.7 0
S1 2 285 zuik 2 0 2 475.2 1
S1 2 286 bluier 2 0 2 456.6 1
S1 2 287 entree 1 4,658823529 1 457.7 1
S1 2 288 bres 1 3,952941176 2 471.5 0
S1 2 289 agesda 2 0 1 19.7 0
S1 2 290 kledij 1 3,811764706 2 462.7 0
S1 2 291 vlijt 1 2,447058824 2 560.4 0
S1 2 292 walmen 1 3,576470588 1 627.9 1
S1 2 293 prelie 2 0 2 555.6 1
S1 2 294 hendel 1 1,882352941 1 626.8 1
S1 2 295 ruipen 2 0 2 458.9 1
S1 2 296 zangst 2 0 1 397.2 0
S1 2 297 sloert 2 0 2 464.4 1
S1 2 298 proper 1 3,741176471 2 477.4 0
S1 2 299 lakei 1 2,823529412 1 515.5 1
S1 2 300 bortie 2 0 2 574.5 1
S1 2 301 boof 2 0 1 545.5 0
S1 2 302 grijt 2 0 2 465.6 1
S1 2 303 maling 1 2,8 1 548.6 1
S1 2 304 puilen 1 4,682352941 2 437.8 0
S1 2 305 krot 1 3,129411764 2 527.5 0
S1 2 306 hirst 2 0 2 589.5 1
S1 2 307 wossen 2 0 1 433.3 0
S1 2 308 staats 1 4,047058824 2 348.2 0
S1 2 309 getij 1 3,976470588 1 630.6 1
S1 2 310 stokje 1 3,788235294 2 436.1 0
S1 2 311 koom 2 0 2 660.1 1
S1 2 312 astma 1 3,882352941 1 460.2 1
S1 2 313 breik 2 0 2 527.9 1
S1 2 314 birst 2 0 2 544.1 1
S1 2 315 zindig 2 0 2 564.7 1
S1 2 316 album 1 4,094117647 1 504.7 1
S1 2 317 wago 2 0 2 490.9 1
S1 2 318 graat 1 2,023529412 1 525.7 1
S1 2 319 armoe 1 3,152941176 2 466.2 0
S1 2 320 hamp 2 0 2 777.5 1
S1 2 321 detter 2 0 2 588.2 1
S1 2 322 forel 1 3,105882353 2 497.6 0
S1 2 323 snoken 2 0 2 602.1 1
S1 2 324 hiemen 2 0 2 485.7 1
S1 2 325 zwaluw 1 4,8 1 434.3 1
S1 2 326 klim 1 2,023529412 1 488.2 1
S1 2 327 dreed 2 0 2 454.7 1
S1 2 328 plaag 1 3,411764706 1 584.7 1
S1 2 329 lannen 2 0 2 453.5 1
S1 2 330 sloep 1 5,388235294 1 426.2 1
S1 2 331 reen 2 0 2 419.5 1
S1 2 332 mank 1 3,788235294 1 462.7 1
S1 2 333 dikte 1 4,235294118 1 481.5 1
S1 2 334 behept 1 2,164705882 2 518.9 0
S1 2 335 lemmet 1 2,635294118 2 498 0
S1 2 336 tweeze 2 0 2 448 1
S1 2 337 guik 2 0 2 492.9 1
S1 2 338 galop 1 4,235294118 1 533.8 1
S1 2 339 kwiek 1 3,529411765 2 475.6 0
S1 2 340 gaag 2 0 1 480.2 0
S1 2 341 asfelt 2 0 2 412.6 1
S1 2 342 paadje 1 1,905882353 1 486.9 1
S1 2 343 graak 2 0 2 570.8 1
S1 2 344 vlerk 1 1,2 1 575.9 1
S1 2 345 kwaken 1 2,752941176 2 402.4 0
S1 2 346 ripen 2 0 2 438.9 1
S1 2 347 merg 1 3,741176471 1 627.2 1
S1 2 348 hoken 2 0 2 439.7 1
S1 2 349 wasbak 1 3,788235294 1 479.2 1
S1 2 350 opiam 2 0 2 447.9 1
S1 2 351 imver 2 0 2 518 1
S1 2 352 kampen 1 3,458823529 1 528.7 1
S1 2 353 kukker 2 0 2 453.3 1
S1 2 354 smeris 1 5,341176471 1 640.4 1
S1 2 355 bode 1 3,788235294 2 323.9 0
S1 2 356 wraai 2 0 1 470.2 0
S1 2 357 danser 1 4,070588235 1 546 1
S1 2 358 beding 1 4,329411765 2 488.6 0
S1 2 359 kodeet 2 0 2 554.1 1
S1 2 360 kossa 2 0 1 465.3 0
S1 2 361 nalm 2 0 2 452.1 1
S1 2 362 tedeer 2 0 2 448.6 1
S1 2 363 kremp 2 0 1 439.3 0
S1 2 364 gazet 1 1,858823529 2 458.3 0
S1 2 365 snik 1 4 1 487.7 1
S1 2 366 toorn 1 4,282352941 1 520.8 1
S1 2 367 azen 1 1,764705882 1 432.8 1
S1 2 368 vargif 2 0 2 497.5 1
S1 2 369 wokker 2 0 2 768 1
S1 2 370 etmaal 1 4,752941176 2 428.5 0
S1 2 371 vieet 2 0 2 520.3 1
S1 2 372 brum 2 0 2 379.6 1
S1 2 373 winven 2 0 2 454.1 1
S1 2 374 bult 1 4,211764706 2 400.3 0
S1 2 375 wuren 2 0 2 556.7 1
S1 2 376 wijlen 1 3,6 2 560.1 0
S1 2 377 lomp 1 3,058823529 1 482.4 1
S1 2 378 strik 1 4,635294118 1 507.6 1
S1 2 379 regie 1 2,823529412 1 454.8 1
S1 2 380 waald 2 0 1 479 0
S1 2 381 afbruk 2 0 2 553.3 1
S1 2 382 konk 2 0 2 467.6 1
S1 2 383 parxum 2 0 2 408.9 1
S1 2 384 iptiek 2 0 2 465.9 1
S1 2 385 wreef 1 1,905882353 2 482.6 0
S1 2 386 salode 2 0 2 471.7 1
S1 2 387 miegen 2 0 2 477.7 1
S1 2 388 bekker 2 0 1 600.1 0
S1 2 389 pend 2 0 1 557.6 0
S1 2 390 kaveel 2 0 2 387.2 1
S1 2 391 borg 1 2,847058824 2 556.5 0
S1 2 392 tact 1 4,447058824 2 552.4 0
S1 2 393 knol 1 4,470588235 1 502.8 1
S1 2 394 gesoe 2 0 1 455.6 0
S1 2 395 smemen 2 0 2 562.6 1
S1 2 396 kablet 2 0 2 435.1 1
S1 2 397 snoet 1 1,741176471 1 526.7 1
S1 2 398 glazig 1 4,329411765 2 404.7 0
S1 2 399 pens 1 2,329411765 1 416.8 1
S1 2 400 houtje 1 4,894117647 1 424.2 1
S1 3 1 nauw 1 4,470588235 1 553.2 1
S1 3 2 eber 2 0 1 517.8 0
S1 3 3 postes 2 0 2 502.4 1
S1 3 4 miniem 1 3,905882353 2 456.8 0
S1 3 5 wuren 2 0 1 441.6 0
S1 3 6 sloep 1 5,388235294 1 453.3 1
S1 3 7 kuip 1 4,470588235 1 501 1
S1 3 8 pastor 1 2,541176471 1 628.6 1
S1 3 9 puilen 1 4,682352941 2 641.8 0
S1 3 10 veeg 1 3,529411765 1 658.4 1
S1 3 11 kwiek 1 3,529411765 1 534.8 1
S1 3 12 mistie 2 0 2 435.2 1
S1 3 13 aanket 2 0 1 459.9 0
S1 3 14 angel 1 4,517647059 1 571 1
S1 3 15 hoeden 1 0,305882353 1 615.5 1
S1 3 16 tagel 2 0 2 459.3 1
S1 3 17 breik 2 0 2 587.3 1
S1 3 18 knol 1 4,470588235 1 521 1
S1 3 19 pluis 1 1,294117647 1 639.6 1
S1 3 20 pend 2 0 2 587.4 1
S1 3 21 boffen 1 2,564705882 1 465.2 1
S1 3 22 opsten 2 0 2 712.6 1
S1 3 23 tobben 1 5,011764706 2 517.1 0
S1 3 24 krong 2 0 2 566.4 1
S1 3 25 hurken 1 3,882352941 1 511.1 1
S1 3 26 miegen 2 0 2 549.5 1
S1 3 27 snoken 2 0 2 648.6 1
S1 3 28 finds 2 0 2 517.2 1
S1 3 29 murt 2 0 2 584.4 1
S1 3 30 afbruk 2 0 2 491.6 1
S1 3 31 charte 2 0 2 565.4 1
S1 3 32 barmer 2 0 2 472.6 1
S1 3 33 eicel 1 5,411764706 1 513.9 1
S1 3 34 kokend 1 3,952941176 1 502.3 1
S1 3 35 zomers 1 5,482352941 1 529.8 1
S1 3 36 lerder 2 0 2 564 1
S1 3 37 bortie 2 0 2 467.3 1
S1 3 38 butje 2 0 1 512.5 0
S1 3 39 optie 1 2,823529412 2 473.6 0
S1 3 40 tolk 1 4,988235294 1 427.9 1
S1 3 41 jeer 2 0 2 563.9 1
S1 3 42 houtje 1 4,894117647 1 491.5 1
S1 3 43 ganre 2 0 2 464.2 1
S1 3 44 zeim 2 0 2 431.5 1
S1 3 45 rimboe 1 1,505882353 1 512.6 1
S1 3 46 zagen 1 5,035294118 1 450.9 1
S1 3 47 gros 1 2,8 1 490.2 1
S1 3 48 tedeer 2 0 2 494 1
S1 3 49 zide 2 0 2 453.9 1
S1 3 50 bagen 2 0 2 482.4 1
S1 3 51 sjerp 1 1,458823529 2 452.6 0
S1 3 52 prelie 2 0 2 538.3 1
S1 3 53 solide 1 5,458823529 2 461.5 0
S1 3 54 mank 1 3,788235294 1 467.1 1
S1 3 55 spons 1 4,282352941 1 452.1 1
S1 3 56 schilp 2 0 1 476.3 0
S1 3 57 blende 2 0 2 416.6 1
S1 3 58 ferm 1 4,611764706 2 455.6 0
S1 3 59 loof 1 2,423529412 1 454.9 1
S1 3 60 vinnig 1 5,223529412 2 403.1 0
S1 3 61 pach 2 0 2 542.7 1
S1 3 62 salode 2 0 2 630.6 1
S1 3 63 maars 2 0 2 508.9 1
S1 3 64 blaam 1 1,835294118 2 480.9 0
S1 3 65 moes 1 1,223529412 2 538.7 0
S1 3 66 graak 2 0 2 450.2 1
S1 3 67 tweeze 2 0 2 435.6 1
S1 3 68 stees 2 0 2 528.7 1
S1 3 69 chloor 1 0,8 1 489 1
S1 3 70 sluis 1 4,211764706 1 447 1
S1 3 71 krot 1 3,129411764 1 498.2 1
S1 3 72 slaw 2 0 2 443.4 1
S1 3 73 astma 1 3,882352941 1 474.1 1
S1 3 74 drumer 2 0 1 474.4 0
S1 3 75 detter 2 0 2 571.8 1
S1 3 76 tarwe 1 4,8 2 396.1 0
S1 3 77 plauw 2 0 1 691.7 0
S1 3 78 lijmen 1 5,082352941 1 644.4 1
S1 3 79 paadje 1 1,905882353 2 544.2 0
S1 3 80 ruipen 2 0 1 576.1 0
S1 3 81 fuif 1 1,788235294 2 448.1 0
S1 3 82 birst 2 0 2 607 1
S1 3 83 noemer 1 4,847058824 2 597.3 0
S1 3 84 snoet 1 1,741176471 1 536.1 1
S1 3 85 wossen 2 0 2 476.4 1
S1 3 86 vioel 2 0 2 494.6 1
S1 3 87 safari 1 1,082352941 1 533.2 1
S1 3 88 brum 2 0 2 499.4 1
S1 3 89 stiem 2 0 2 632.1 1
S1 3 90 grocht 2 0 2 419.9 1
S1 3 91 wraai 2 0 2 588.8 1
S1 3 92 typen 1 3,623529412 1 474.4 1
S1 3 93 lomp 1 3,058823529 2 433.4 0
S1 3 94 divun 2 0 2 468.6 1
S1 3 95 sooie 2 0 2 483.5 1
S1 3 96 haaien 1 0,352941176 1 496.9 1
S1 3 97 ralief 2 0 2 468.7 1
S1 3 98 pion 1 2,117647059 2 489.5 0
S1 3 99 duik 1 1,929411765 1 32.5 1
S1 3 100 pruken 2 0 2 558.8 1
S1 3 101 wijlen 1 3,6 2 532.4 0
S1 3 102 schul 2 0 1 517.7 0
S1 3 103 spijl 1 3,764705882 1 437 1
S1 3 104 zuid 1 4,705882353 1 619 1
S1 3 105 remp 2 0 2 516.6 1
S1 3 106 ruusen 2 0 2 484.3 1
S1 3 107 vlicht 2 0 2 642.2 1
S1 3 108 kluis 1 4,494117647 1 530 1
S1 3 109 parxum 2 0 2 422.7 1
S1 3 110 lonig 2 0 2 458.5 1
S1 3 111 fiscus 1 3,929411765 2 506.9 0
S1 3 112 apiche 2 0 2 502.8 1
S1 3 113 parket 1 4,258823529 2 410 0
S1 3 114 imver 2 0 2 563.5 1
S1 3 115 lorst 2 0 2 422.1 1
S1 3 116 ponk 2 0 2 567.9 1
S1 3 117 etoge 2 0 2 473.6 1
S1 3 118 kodeet 2 0 2 477.2 1
S1 3 119 baars 1 1,576470588 1 700.3 1
S1 3 120 forel 1 3,105882353 1 522.5 1
S1 3 121 schede 1 3,152941176 2 525.9 0
S1 3 122 revers 1 2,635294118 2 534.8 0
S1 3 123 bans 2 0 2 509.4 1
S1 3 124 goer 2 0 2 581.9 1
S1 3 125 dijp 2 0 2 513.8 1
S1 3 126 regie 1 2,823529412 1 542.4 1
S1 3 127 nijtje 2 0 2 661.2 1
S1 3 128 brons 1 2,870588235 1 478.8 1
S1 3 129 huinig 2 0 2 644.8 1
S1 3 130 guik 2 0 2 518 1
S1 3 131 graat 1 2,023529412 1 506.5 1
S1 3 132 orinje 2 0 2 472.4 1
S1 3 133 givaar 2 0 2 534.7 1
S1 3 134 versus 1 4,494117647 1 593.1 1
S1 3 135 inlal 2 0 2 496.6 1
S1 3 136 fjord 1 3,882352941 1 511.3 1
S1 3 137 nuig 2 0 2 466.1 1
S1 3 138 beding 1 4,329411765 2 488.7 0
S1 3 139 aanhef 1 3,058823529 1 473.3 1
S1 3 140 bever 1 1,176470588 1 528.1 1
S1 3 141 hark 1 1,529411765 1 508.8 1
S1 3 142 geroep 1 4,141176471 1 602.8 1
S1 3 143 sloert 2 0 1 536.9 0
S1 3 144 wago 2 0 2 455.2 1
S1 3 145 alkook 2 0 2 492.2 1
S1 3 146 linter 2 0 2 463.8 1
S1 3 147 kwaken 1 2,752941176 1 606.9 1
S1 3 148 scheks 2 0 2 410.9 1
S1 3 149 reen 2 0 2 503.8 1
S1 3 150 gazet 1 1,858823529 2 439.1 0
S1 3 151 legen 1 3,788235294 1 495.1 1
S1 3 152 vlerk 1 1,2 1 583.3 1
S1 3 153 gilde 1 4,4 1 527.7 1
S1 3 154 cement 1 4,329411765 1 433.6 1
S1 3 155 rier 2 0 1 537.3 0
S1 3 156 kledij 1 3,811764706 1 657.3 1
S1 3 157 lemmet 1 2,635294118 2 499.4 0
S1 3 158 konk 2 0 2 517.8 1
S1 3 159 belug 2 0 2 477.2 1
S1 3 160 zoer 2 0 2 512.7 1
S1 3 161 jorist 2 0 2 514.1 1
S1 3 162 ronnik 2 0 2 494.4 1
S1 3 163 strik 1 4,635294118 1 507.6 1
S1 3 164 ledig 1 3,035294118 2 538.9 0
S1 3 165 zindig 2 0 1 618.9 0
S1 3 166 tist 2 0 2 562.3 1
S1 3 167 bijval 1 3,811764706 1 522.9 1
S1 3 168 cier 2 0 2 457.9 1
S1 3 169 tonnel 2 0 2 503.8 1
S1 3 170 entree 1 4,658823529 1 493.3 1
S1 3 171 tiek 2 0 2 458.3 1
S1 3 172 jurig 2 0 2 565 1
S1 3 173 rinden 2 0 2 561.5 1
S1 3 174 stru 2 0 2 448.4 1
S1 3 175 lyceum 1 3,811764706 1 555 1
S1 3 176 peide 2 0 2 596.4 1
S1 3 177 geide 2 0 2 506.5 1
S1 3 178 toeter 1 1,764705882 1 544 1
S1 3 179 gewend 1 1,576470588 1 553 1
S1 3 180 kereik 2 0 2 493.7 1
S1 3 181 ontbag 2 0 2 539.9 1
S1 3 182 flunk 2 0 2 532.6 1
S1 3 183 odem 2 0 2 489.6 1
S1 3 184 proper 1 3,741176471 2 488 0
S1 3 185 getij 1 3,976470588 1 511.4 1
S1 3 186 hoken 2 0 2 524.1 1
S1 3 187 vocta 2 0 2 434.7 1
S1 3 188 weids 1 3,905882353 1 522.8 1
S1 3 189 reuk 1 5,388235294 2 525.3 0
S1 3 190 kopij 1 2,211764706 1 458.7 1
S1 3 191 fesie 2 0 2 542.9 1
S1 3 192 zwaluw 1 4,8 1 468 1
S1 3 193 vruik 2 0 2 529.8 1
S1 3 194 cultus 1 5,482352941 1 563.7 1
S1 3 195 woelig 1 3,6 1 521.4 1
S1 3 196 alpoor 2 0 2 494.4 1
S1 3 197 nijd 1 1,929411765 1 559.7 1
S1 3 198 sessie 1 3,176470588 1 479.6 1
S1 3 199 smemen 2 0 2 609.5 1
S1 3 200 hiemen 2 0 2 540 1
S1 3 201 schork 2 0 2 506.5 1
S1 3 202 borg 1 2,847058824 1 586.3 1
S1 3 203 stokje 1 3,788235294 1 552.7 1
S1 3 204 slee 1 1,035294118 1 491.1 1
S1 3 205 behept 1 2,164705882 2 509.4 0
S1 3 206 napen 2 0 2 503.1 1
S1 3 207 tros 1 5,341176471 1 480 1
S1 3 208 gesoe 2 0 2 514.2 1
S1 3 209 nalm 2 0 1 465.6 0
S1 3 210 kablet 2 0 2 485.9 1
S1 3 211 gezwil 2 0 1 533.5 0
S1 3 212 decar 2 0 2 562.4 1
S1 3 213 hilt 2 0 2 600.5 1
S1 3 214 kapje 1 2,023529412 1 529.3 1
S1 3 215 caak 2 0 2 440 1
S1 3 216 stoos 2 0 1 509.7 0
S1 3 217 hendel 1 1,882352941 1 536 1
S1 3 218 kastje 1 3,858823529 1 491.7 1
S1 3 219 wimpel 1 1,694117647 1 492 1
S1 3 220 ezol 2 0 2 475 1
S1 3 221 walmen 1 3,576470588 1 538.4 1
S1 3 222 leuze 1 4,4 2 468.1 0
S1 3 223 offen 2 0 2 590.1 1
S1 3 224 raspen 1 4,776470588 1 548.8 1
S1 3 225 schoon 1 3,552941176 2 560.8 0
S1 3 226 pens 1 2,329411765 1 496.8 1
S1 3 227 civiek 2 0 2 445.9 1
S1 3 228 cuur 2 0 2 611.9 1
S1 3 229 kaveel 2 0 2 527.6 1
S1 3 230 tekje 2 0 1 445.4 0
S1 3 231 merg 1 3,741176471 1 536.1 1
S1 3 232 jury 1 3,835294118 1 515.2 1
S1 3 233 maling 1 2,8 1 607.7 1
S1 3 234 aupo 2 0 2 489.4 1
S1 3 235 winven 2 0 2 551.8 1
S1 3 236 amtrek 2 0 2 579 1
S1 3 237 puid 2 0 2 518.2 1
S1 3 238 wuzig 2 0 2 443.4 1
S1 3 239 etmaal 1 4,752941176 2 441.5 0
S1 3 240 klaup 2 0 2 478.3 1
S1 3 241 plaag 1 3,411764706 1 523.5 1
S1 3 242 zwaten 2 0 2 479.6 1
S1 3 243 belk 2 0 2 460.5 1
S1 3 244 steppe 1 3,717647059 1 495.7 1
S1 3 245 zondje 2 0 2 490.9 1
S1 3 246 lieb 2 0 2 503.9 1
S1 3 247 clown 1 4,752941176 1 475.9 1
S1 3 248 vargif 2 0 2 392.9 1
S1 3 249 lakei 1 2,823529412 1 534.8 1
S1 3 250 faam 1 5,129411765 2 462 0
S1 3 251 album 1 4,094117647 1 492.9 1
S1 3 252 boeran 2 0 2 548 1
S1 3 253 uitzet 1 1,129411765 1 567.5 1
S1 3 254 durst 2 0 2 461.7 1
S1 3 255 jargon 1 4,094117647 2 554.5 0
S1 3 256 puzzel 1 3,647058824 1 731.2 1
S1 3 257 telen 1 2,023529412 2 540.8 0
S1 3 258 bekker 2 0 2 556.8 1
S1 3 259 moelas 2 0 2 436.4 1
S1 3 260 joelen 1 4,352941176 1 566.2 1
S1 3 261 deppen 1 1,6 2 531.7 0
S1 3 262 room 1 5,458823529 1 564.5 1
S1 3 263 pyfama 2 0 2 624.2 1
S1 3 264 hang 1 3,623529412 1 464.7 1
S1 3 265 wenx 2 0 2 652.6 1
S1 3 266 hoera 1 3,905882353 1 448 1
S1 3 267 epele 2 0 2 427.1 1
S1 3 268 wesp 1 4,070588235 1 476.4 1
S1 3 269 roen 2 0 2 486.9 1
S1 3 270 trio 1 3,223529412 1 580.1 1
S1 3 271 danser 1 4,070588235 1 440.6 1
S1 3 272 draf 1 3,811764706 1 496 1
S1 3 273 bult 1 4,211764706 2 499.1 0
S1 3 274 weel 2 0 2 617.9 1
S1 3 275 morsen 1 4,988235294 1 520.9 1
S1 3 276 waald 2 0 2 491.6 1
S1 3 277 elan 1 3,623529412 1 462.7 1
S1 3 278 bres 1 3,952941176 2 582 0
S1 3 279 hubeur 2 0 2 519.5 1
S1 3 280 vruger 2 0 2 534.9 1
S1 3 281 azen 1 1,764705882 1 542.8 1
S1 3 282 koom 2 0 2 486.3 1
S1 3 283 honen 1 5,247058824 2 553.2 0
S1 3 284 noek 2 0 2 536.9 1
S1 3 285 staats 1 4,047058824 1 538.9 1
S1 3 286 bluier 2 0 2 423.3 1
S1 3 287 accu 1 1,317647059 1 476.6 1
S1 3 288 agesda 2 0 2 482.4 1
S1 3 289 gemeld 1 4,541176471 2 497.4 0
S1 3 290 dikte 1 4,235294118 1 508 1
S1 3 291 proei 2 0 1 475.8 0
S1 3 292 orzet 2 0 2 655 1
S1 3 293 rabbi 1 2,305882353 1 655.6 1
S1 3 294 iptiek 2 0 2 498.6 1
S1 3 295 index 1 4,941176471 2 522.9 0
S1 3 296 wokker 2 0 1 500.6 0
S1 3 297 senior 1 1,552941176 1 509.2 1
S1 3 298 zanger 1 5,411764706 1 502.2 1
S1 3 299 kremp 2 0 1 530.8 0
S1 3 300 zeelde 2 0 2 402.4 1
S1 3 301 strot 1 4,470588235 1 493.5 1
S1 3 302 welp 1 1,741176471 1 506 1
S1 3 303 allure 1 5,223529412 2 438.3 0
S1 3 304 suber 2 0 2 595.3 1
S1 3 305 galop 1 4,235294118 1 479.7 1
S1 3 306 zinnen 1 4,282352941 1 479.7 1
S1 3 307 kreek 1 2,588235294 2 481.7 0
S1 3 308 gedag 1 2,047058824 1 443.7 1
S1 3 309 krap 1 4,823529412 2 549.1 0
S1 3 310 snik 1 4 1 575 1
S1 3 311 benul 1 3,623529412 2 437 0
S1 3 312 toorn 1 4,282352941 1 566.3 1
S1 3 313 tulp 1 2,776470588 1 445.4 1
S1 3 314 defect 1 3,388235294 1 543.4 1
S1 3 315 pikant 1 5,482352941 1 490.6 1
S1 3 316 hirst 2 0 2 576.8 1
S1 3 317 vees 2 0 2 521.5 1
S1 3 318 klim 1 2,023529412 1 628.7 1
S1 3 319 spleef 2 0 2 505 1
S1 3 320 glak 2 0 1 539.7 0
S1 3 321 kajel 2 0 2 559.1 1
S1 3 322 vernal 2 0 2 462.2 1
S1 3 323 wasbak 1 3,788235294 1 485.4 1
S1 3 324 meker 2 0 2 448.2 1
S1 3 325 dagma 2 0 2 624 1
S1 3 326 domweg 1 5,176470588 1 502.5 1
S1 3 327 schut 1 1,952941176 2 468.5 0
S1 3 328 kossa 2 0 2 586.7 1
S1 3 329 kinds 1 1,623529412 1 546.5 1
S1 3 330 loyaal 1 4,023529412 1 495.2 1
S1 3 331 doer 2 0 2 497.2 1
S1 3 332 knavel 2 0 1 549.3 0
S1 3 333 geming 2 0 2 534.9 1
S1 3 334 fasje 2 0 2 478.4 1
S1 3 335 opiam 2 0 2 485.9 1
S1 3 336 wreef 1 1,905882353 2 454.7 0
S1 3 337 idylle 1 2,423529412 1 675.4 1
S1 3 338 grijt 2 0 2 590.8 1
S1 3 339 kukker 2 0 2 571.6 1
S1 3 340 kiedje 2 0 2 485.1 1
S1 3 341 limiet 1 2,588235294 1 507.2 1
S1 3 342 rieten 1 4,258823529 2 479.5 0
S1 3 343 bilar 2 0 2 603.3 1
S1 3 344 vaccin 1 0,705882353 2 503.7 0
S1 3 345 kelom 2 0 2 501.5 1
S1 3 346 zangst 2 0 1 481.4 0
S1 3 347 helte 2 0 2 508.7 1
S1 3 348 orakel 1 2,517647059 2 507.2 0
S1 3 349 oase 1 3,811764706 1 512 1
S1 3 350 tact 1 4,447058824 1 643 1
S1 3 351 porto 1 2,305882353 2 552 0
S1 3 352 kampen 1 3,458823529 2 535 0
S1 3 353 lannen 2 0 1 722 0
S1 3 354 polder 1 4,776470588 1 654.3 1
S1 3 355 dreed 2 0 2 548.1 1
S1 3 356 laande 2 0 2 527 1
S1 3 357 ripen 2 0 2 435.4 1
S1 3 358 korps 1 3,741176471 1 494.3 1
S1 3 359 vlijt 1 2,447058824 1 569.6 1
S1 3 360 dond 2 0 1 417 0
S1 3 361 zegel 1 3,529411765 2 462.6 0
S1 3 362 oloud 2 0 2 508.5 1
S1 3 363 vezel 1 5,482352941 1 564.3 1
S1 3 364 barok 1 2,4 1 459.3 1
S1 3 365 bankje 1 3,223529412 1 503 1
S1 3 366 umloop 2 0 2 541.2 1
S1 3 367 roedel 1 1,082352941 2 526.7 0
S1 3 368 vouw 1 3,529411765 1 570.1 1
S1 3 369 invoer 1 5,435294118 1 496 1
S1 3 370 muil 1 3,364705882 1 602.5 1
S1 3 371 panter 1 3,529411765 1 533.9 1
S1 3 372 dynamo 1 0,729411765 1 506.7 1
S1 3 373 spade 1 1,858823529 2 811.5 0
S1 3 374 zuik 2 0 1 536.1 0
S1 3 375 sjaam 2 0 2 538.3 1
S1 3 376 hamp 2 0 2 465.2 1
S1 3 377 gaag 2 0 1 493.8 0
S1 3 378 rasijn 2 0 2 395.2 1
S1 3 379 smeris 1 5,341176471 1 465.9 1
S1 3 380 vieet 2 0 2 441.3 1
S1 3 381 deman 2 0 2 387.1 1
S1 3 382 uven 2 0 2 509.8 1
S1 3 383 melken 1 4,141176471 1 539 1
S1 3 384 waan 1 5,458823529 2 411.6 0
S1 3 385 mopen 2 0 1 465.6 0
S1 3 386 trec 2 0 2 442.2 1
S1 3 387 glazig 1 4,329411765 2 416.6 0
S1 3 388 lappen 1 4,305882353 2 440.1 0
S1 3 389 kers 1 4,658823529 2 524.2 0
S1 3 390 armoe 1 3,152941176 2 570.7 0
S1 3 391 boof 2 0 2 446.3 1
S1 3 392 troun 2 0 2 487.6 1
S1 3 393 ruis 1 1,764705882 2 540.5 0
S1 3 394 onwaar 1 3,623529412 1 528.3 1
S1 3 395 bode 1 3,788235294 2 529.2 0
S1 3 396 kraal 1 4,305882353 1 494.2 1
S1 3 397 asfelt 2 0 2 520.4 1
S1 3 398 ploei 2 0 1 417.9 0
S1 3 399 bestak 2 0 2 492.9 1
S1 3 400 prok 2 0 2 416.4 1
S1 4 1 haaien 1 0,352941176 1 518.4 1
S1 4 2 geming 2 0 2 528.5 1
S1 4 3 tonnel 2 0 1 388.7 0
S1 4 4 rinden 2 0 2 501 1
S1 4 5 lomp 1 3,058823529 1 454.7 1
S1 4 6 opsten 2 0 2 419 1
S1 4 7 zwaluw 1 4,8 1 441 1
S1 4 8 forel 1 3,105882353 1 501.1 1
S1 4 9 paadje 1 1,905882353 1 454.5 1
S1 4 10 cement 1 4,329411765 1 540.9 1
S1 4 11 hendel 1 1,882352941 1 559.2 1
S1 4 12 schoon 1 3,552941176 1 449.9 1
S1 4 13 decar 2 0 2 538.7 1
S1 4 14 prok 2 0 2 475.8 1
S1 4 15 parket 1 4,258823529 1 489.3 1
S1 4 16 vocta 2 0 2 408.9 1
S1 4 17 klim 1 2,023529412 1 494.7 1
S1 4 18 ripen 2 0 2 422.6 1
S1 4 19 winven 2 0 2 480.3 1
S1 4 20 deman 2 0 2 466.7 1
S1 4 21 kuip 1 4,470588235 1 431.7 1
S1 4 22 moes 1 1,223529412 1 450.4 1
S1 4 23 troun 2 0 2 507.5 1
S1 4 24 invoer 1 5,435294118 1 510.4 1
S1 4 25 wimpel 1 1,694117647 1 532 1
S1 4 26 bilar 2 0 2 490.8 1
S1 4 27 bans 2 0 2 452.4 1
S1 4 28 cier 2 0 2 467.8 1
S1 4 29 kajel 2 0 2 452.8 1
S1 4 30 kelom 2 0 2 458.2 1
S1 4 31 nijtje 2 0 2 493.3 1
S1 4 32 wago 2 0 2 431.5 1
S1 4 33 trio 1 3,223529412 1 459.1 1
S1 4 34 lakei 1 2,823529412 1 496.1 1
S1 4 35 sooie 2 0 2 428.6 1
S1 4 36 zondje 2 0 2 604.7 1
S1 4 37 blaam 1 1,835294118 2 429.9 0
S1 4 38 snik 1 4 1 473.7 1
S1 4 39 dagma 2 0 2 445.3 1
S1 4 40 bres 1 3,952941176 2 446.8 0
S1 4 41 gemeld 1 4,541176471 1 520 1
S1 4 42 geroep 1 4,141176471 1 481.4 1
S1 4 43 finds 2 0 2 379.1 1
S1 4 44 rieten 1 4,258823529 2 393.2 0
S1 4 45 zindig 2 0 2 448.3 1
S1 4 46 snoet 1 1,741176471 1 447.1 1
S1 4 47 elan 1 3,623529412 2 413.7 0
S1 4 48 kastje 1 3,858823529 1 510.1 1
S1 4 49 kukker 2 0 2 491.7 1
S1 4 50 kaveel 2 0 1 583.7 0
S1 4 51 graak 2 0 2 391.5 1
S1 4 52 mank 1 3,788235294 1 529.6 1
S1 4 53 eber 2 0 2 434.7 1
S1 4 54 apiche 2 0 2 445.6 1
S1 4 55 stoos 2 0 1 442.5 0
S1 4 56 jorist 2 0 1 436.2 0
S1 4 57 vlijt 1 2,447058824 1 616 1
S1 4 58 ruusen 2 0 2 398.5 1
S1 4 59 doer 2 0 2 459.4 1
S1 4 60 angel 1 4,517647059 2 549.8 0
S1 4 61 oloud 2 0 2 542.9 1
S1 4 62 lonig 2 0 1 489.4 0
S1 4 63 weel 2 0 1 503.6 0
S1 4 64 nuig 2 0 2 493.1 1
S1 4 65 konk 2 0 2 477.4 1
S1 4 66 deppen 1 1,6 1 511 1
S1 4 67 schul 2 0 1 482.6 0
S1 4 68 brons 1 2,870588235 1 542.3 1
S1 4 69 honen 1 5,247058824 2 644 0
S1 4 70 pyfama 2 0 2 502.3 1
S1 4 71 wenx 2 0 2 479.6 1
S1 4 72 idylle 1 2,423529412 1 507.4 1
S1 4 73 klaup 2 0 2 502.3 1
S1 4 74 jury 1 3,835294118 1 493 1
S1 4 75 wesp 1 4,070588235 2 403.2 0
S1 4 76 opiam 2 0 2 488.4 1
S1 4 77 postes 2 0 2 525.6 1
S1 4 78 bortie 2 0 2 471.4 1
S1 4 79 bijval 1 3,811764706 1 680.5 1
S1 4 80 stees 2 0 1 403.4 0
S1 4 81 spijl 1 3,764705882 1 480.1 1
S1 4 82 raspen 1 4,776470588 1 440.2 1
S1 4 83 etmaal 1 4,752941176 1 480.8 1
S1 4 84 brum 2 0 2 464.4 1
S1 4 85 regie 1 2,823529412 1 522.8 1
S1 4 86 kluis 1 4,494117647 2 546.2 0
S1 4 87 welp 1 1,741176471 1 371.5 1
S1 4 88 solide 1 5,458823529 2 563.7 0
S1 4 89 tweeze 2 0 2 510.2 1
S1 4 90 grocht 2 0 2 665 1
S1 4 91 woelig 1 3,6 2 480.9 0
S1 4 92 hoeden 1 0,305882353 2 568.5 0
S1 4 93 faam 1 5,129411765 2 491.1 0
S1 4 94 benul 1 3,623529412 2 498.9 0
S1 4 95 glak 2 0 2 525.4 1
S1 4 96 umloop 2 0 2 485.9 1
S1 4 97 album 1 4,094117647 1 464.8 1
S1 4 98 pluis 1 1,294117647 1 534.5 1
S1 4 99 ralief 2 0 1 599.2 0
S1 4 100 charte 2 0 2 471 1
S1 4 101 vieet 2 0 2 492 1
S1 4 102 kopij 1 2,211764706 1 478 1
S1 4 103 joelen 1 4,352941176 2 400.4 0
S1 4 104 geide 2 0 2 548.1 1
S1 4 105 zide 2 0 2 522.6 1
S1 4 106 dynamo 1 0,729411765 1 501.9 1
S1 4 107 kereik 2 0 2 454 1
S1 4 108 gros 1 2,8 1 506.7 1
S1 4 109 breik 2 0 1 426 0
S1 4 110 wossen 2 0 2 479.1 1
S1 4 111 stokje 1 3,788235294 1 448.9 1
S1 4 112 houtje 1 4,894117647 1 436.4 1
S1 4 113 salode 2 0 2 531.2 1
S1 4 114 flunk 2 0 2 461.8 1
S1 4 115 limiet 1 2,588235294 1 537.7 1
S1 4 116 bluier 2 0 2 440.4 1
S1 4 117 proei 2 0 1 527.2 0
S1 4 118 tarwe 1 4,8 2 414.7 0
S1 4 119 lijmen 1 5,082352941 2 400.4 0
S1 4 120 murt 2 0 2 616.5 1
S1 4 121 borg 1 2,847058824 1 523.2 1
S1 4 122 sessie 1 3,176470588 1 482.1 1
S1 4 123 reuk 1 5,388235294 1 504 1
S1 4 124 walmen 1 3,576470588 1 692.2 1
S1 4 125 durst 2 0 2 524.5 1
S1 4 126 revers 1 2,635294118 2 525.9 0
S1 4 127 rasijn 2 0 1 514.3 0
S1 4 128 draf 1 3,811764706 1 582.7 1
S1 4 129 alpoor 2 0 2 473.9 1
S1 4 130 dikte 1 4,235294118 2 408.3 0
S1 4 131 fjord 1 3,882352941 1 448.9 1
S1 4 132 kreek 1 2,588235294 2 478.1 0
S1 4 133 jeer 2 0 2 465.6 1
S1 4 134 tobben 1 5,011764706 2 509.7 0
S1 4 135 ezol 2 0 2 589.8 1
S1 4 136 krong 2 0 2 519.4 1
S1 4 137 sluis 1 4,211764706 1 437.3 1
S1 4 138 telen 1 2,023529412 1 538 1
S1 4 139 vaccin 1 0,705882353 2 416.9 0
S1 4 140 zegel 1 3,529411765 1 404 1
S1 4 141 laande 2 0 2 448 1
S1 4 142 pikant 1 5,482352941 1 502.1 1
S1 4 143 epele 2 0 2 440.6 1
S1 4 144 zeelde 2 0 2 459.1 1
S1 4 145 goer 2 0 2 554.2 1
S1 4 146 wasbak 1 3,788235294 1 430.1 1
S1 4 147 lorst 2 0 2 495.3 1
S1 4 148 bekker 2 0 2 507.1 1
S1 4 149 noek 2 0 2 464 1
S1 4 150 zuik 2 0 2 525.6 1
S1 4 151 safari 1 1,082352941 1 519 1
S1 4 152 roen 2 0 1 423.1 0
S1 4 153 smeris 1 5,341176471 1 481.6 1
S1 4 154 roedel 1 1,082352941 1 408.9 1
S1 4 155 cuur 2 0 2 624 1
S1 4 156 trec 2 0 2 441.3 1
S1 4 157 imver 2 0 2 394.5 1
S1 4 158 vlerk 1 1,2 1 567.9 1
S1 4 159 birst 2 0 2 424.4 1
S1 4 160 slaw 2 0 2 435.7 1
S1 4 161 stru 2 0 1 456.5 0
S1 4 162 steppe 1 3,717647059 1 543.2 1
S1 4 163 noemer 1 4,847058824 2 379.6 0
S1 4 164 kraal 1 4,305882353 1 483.3 1
S1 4 165 rier 2 0 2 426.7 1
S1 4 166 fiscus 1 3,929411765 2 441.2 0
S1 4 167 kossa 2 0 2 432.7 1
S1 4 168 kokend 1 3,952941176 1 534.9 1
S1 4 169 hirst 2 0 2 387.8 1
S1 4 170 entree 1 4,658823529 1 450.7 1
S1 4 171 kers 1 4,658823529 1 389.2 1
S1 4 172 tros 1 5,341176471 2 456.6 0
S1 4 173 waald 2 0 1 436.5 0
S1 4 174 armoe 1 3,152941176 1 586.5 1
S1 4 175 danser 1 4,070588235 1 478.7 1
S1 4 176 stiem 2 0 1 470.8 0
S1 4 177 wokker 2 0 2 740.4 1
S1 4 178 gedag 1 2,047058824 1 532.7 1
S1 4 179 hoken 2 0 2 497.2 1
S1 4 180 uven 2 0 2 395.1 1
S1 4 181 scheks 2 0 2 473.7 1
S1 4 182 strik 1 4,635294118 1 541.2 1
S1 4 183 lerder 2 0 2 546.4 1
S1 4 184 peide 2 0 2 417.2 1
S1 4 185 afbruk 2 0 2 547.2 1
S1 4 186 pend 2 0 2 581.9 1
S1 4 187 kampen 1 3,458823529 2 488.1 0
S1 4 188 accu 1 1,317647059 1 552.4 1
S1 4 189 polder 1 4,776470588 1 487.9 1
S1 4 190 wuzig 2 0 2 482.8 1
S1 4 191 wuren 2 0 2 418.1 1
S1 4 192 pruken 2 0 2 478.7 1
S1 4 193 vargif 2 0 2 464 1
S1 4 194 defect 1 3,388235294 1 429.7 1
S1 4 195 pastor 1 2,541176471 1 442.6 1
S1 4 196 jargon 1 4,094117647 2 463.8 0
S1 4 197 fuif 1 1,788235294 1 406.6 1
S1 4 198 graat 1 2,023529412 1 502.1 1
S1 4 199 blende 2 0 2 470.6 1
S1 4 200 onwaar 1 3,623529412 1 510 1
S1 4 201 dond 2 0 2 411 1
S1 4 202 ruipen 2 0 1 613.4 0
S1 4 203 detter 2 0 2 464.2 1
S1 4 204 loof 1 2,423529412 2 463.3 0
S1 4 205 astma 1 3,882352941 1 478.1 1
S1 4 206 ponk 2 0 2 474.1 1
S1 4 207 muil 1 3,364705882 1 442 1
S1 4 208 ontbag 2 0 2 442.6 1
S1 4 209 proper 1 3,741176471 2 443.4 0
S1 4 210 oase 1 3,811764706 1 493.4 1
S1 4 211 leuze 1 4,4 1 474.8 1
S1 4 212 vernal 2 0 2 490.3 1
S1 4 213 tulp 1 2,776470588 1 460.3 1
S1 4 214 kiedje 2 0 2 498.9 1
S1 4 215 divun 2 0 2 522.6 1
S1 4 216 orzet 2 0 2 388.6 1
S1 4 217 nauw 1 4,470588235 1 531.9 1
S1 4 218 drumer 2 0 1 554.4 0
S1 4 219 hark 1 1,529411765 2 525.9 0
S1 4 220 optie 1 2,823529412 1 434.1 1
S1 4 221 dreed 2 0 2 490.8 1
S1 4 222 boffen 1 2,564705882 1 474.5 1
S1 4 223 zinnen 1 4,282352941 1 541.7 1
S1 4 224 hubeur 2 0 2 483.8 1
S1 4 225 kodeet 2 0 2 477.6 1
S1 4 226 sloert 2 0 1 486.6 0
S1 4 227 typen 1 3,623529412 1 529.3 1
S1 4 228 bankje 1 3,223529412 1 488 1
S1 4 229 gewend 1 1,576470588 1 552.6 1
S1 4 230 gesoe 2 0 2 449.5 1
S1 4 231 zomers 1 5,482352941 1 496.6 1
S1 4 232 duik 1 1,929411765 1 445.3 1
S1 4 233 zagen 1 5,035294118 1 409.7 1
S1 4 234 kwaken 1 2,752941176 1 447.6 1
S1 4 235 koom 2 0 2 495.1 1
S1 4 236 hurken 1 3,882352941 1 563.6 1
S1 4 237 amtrek 2 0 2 465.9 1
S1 4 238 butje 2 0 2 473.4 1
S1 4 239 vouw 1 3,529411765 1 442.3 1
S1 4 240 knavel 2 0 2 407.3 1
S1 4 241 vlicht 2 0 1 522.4 0
S1 4 242 jurig 2 0 2 412.3 1
S1 4 243 rimboe 1 1,505882353 1 582.4 1
S1 4 244 barok 1 2,4 1 414.4 1
S1 4 245 room 1 5,458823529 1 426.6 1
S1 4 246 krap 1 4,823529412 2 528.8 0
S1 4 247 schut 1 1,952941176 1 422.5 1
S1 4 248 bestak 2 0 2 532 1
S1 4 249 hiemen 2 0 2 487.7 1
S1 4 250 etoge 2 0 2 468.1 1
S1 4 251 bagen 2 0 1 491.3 0
S1 4 252 behept 1 2,164705882 2 392.4 0
S1 4 253 morsen 1 4,988235294 2 448.2 0
S1 4 254 korps 1 3,741176471 1 516.7 1
S1 4 255 meker 2 0 2 541.9 1
S1 4 256 tedeer 2 0 2 409.5 1
S1 4 257 ruis 1 1,764705882 1 426 1
S1 4 258 panter 1 3,529411765 1 621.4 1
S1 4 259 vioel 2 0 2 532.2 1
S1 4 260 gaag 2 0 1 382.3 0
S1 4 261 moelas 2 0 2 394.8 1
S1 4 262 vruger 2 0 2 452.6 1
S1 4 263 kledij 1 3,811764706 1 528.5 1
S1 4 264 schork 2 0 2 571.5 1
S1 4 265 miegen 2 0 2 364.8 1
S1 4 266 lyceum 1 3,811764706 1 453.9 1
S1 4 267 caak 2 0 2 393.3 1
S1 4 268 domweg 1 5,176470588 1 560.7 1
S1 4 269 ledig 1 3,035294118 2 469.9 0
S1 4 270 glazig 1 4,329411765 1 462.4 1
S1 4 271 iptiek 2 0 2 448.8 1
S1 4 272 kapje 1 2,023529412 1 485.1 1
S1 4 273 agesda 2 0 2 462.2 1
S1 4 274 orinje 2 0 2 436.8 1
S1 4 275 azen 1 1,764705882 1 529.5 1
S1 4 276 schilp 2 0 2 453.6 1
S1 4 277 toorn 1 4,282352941 2 391.2 0
S1 4 278 puid 2 0 2 499.3 1
S1 4 279 dijp 2 0 2 391.3 1
S1 4 280 pion 1 2,117647059 1 461.4 1
S1 4 281 sloep 1 5,388235294 1 478.4 1
S1 4 282 sjerp 1 1,458823529 2 425.7 0
S1 4 283 kablet 2 0 2 590.9 1
S1 4 284 remp 2 0 1 449 0
S1 4 285 puilen 1 4,682352941 1 583.9 1
S1 4 286 odem 2 0 2 382.5 1
S1 4 287 alkook 2 0 2 512.9 1
S1 4 288 hamp 2 0 1 610.7 0
S1 4 289 plauw 2 0 2 357.8 1
S1 4 290 versus 1 4,494117647 2 427 0
S1 4 291 ganre 2 0 2 444.5 1
S1 4 292 uitzet 1 1,129411765 1 429.6 1
S1 4 293 bever 1 1,176470588 2 409.2 0
S1 4 294 clown 1 4,752941176 1 390.8 1
S1 4 295 napen 2 0 2 431.1 1
S1 4 296 wijlen 1 3,6 1 493.2 1
S1 4 297 mistie 2 0 2 408.8 1
S1 4 298 vezel 1 5,482352941 1 406.4 1
S1 4 299 linter 2 0 2 435.8 1
S1 4 300 reen 2 0 1 407.9 0
S1 4 301 tagel 2 0 2 420.1 1
S1 4 302 tiek 2 0 2 442.8 1
S1 4 303 givaar 2 0 2 548.1 1
S1 4 304 smemen 2 0 2 598.5 1
S1 4 305 civiek 2 0 2 388.8 1
S1 4 306 miniem 1 3,905882353 2 399.9 0
S1 4 307 orakel 1 2,517647059 2 455.4 0
S1 4 308 hang 1 3,623529412 1 505.5 1
S1 4 309 barmer 2 0 2 481 1
S1 4 310 tist 2 0 1 467.5 0
S1 4 311 hoera 1 3,905882353 1 422.1 1
S1 4 312 index 1 4,941176471 2 407.9 0
S1 4 313 toeter 1 1,764705882 1 408.4 1
S1 4 314 aanket 2 0 2 546.8 1
S1 4 315 puzzel 1 3,647058824 2 442.6 0
S1 4 316 belk 2 0 2 539.7 1
S1 4 317 aupo 2 0 2 556.7 1
S1 4 318 merg 1 3,741176471 2 382.8 0
S1 4 319 lemmet 1 2,635294118 1 431.3 1
S1 4 320 parxum 2 0 1 475.5 0
S1 4 321 helte 2 0 2 419.2 1
S1 4 322 zeim 2 0 2 498.7 1
S1 4 323 fasje 2 0 2 375.1 1
S1 4 324 knol 1 4,470588235 1 384.7 1
S1 4 325 ploei 2 0 2 325.3 1
S1 4 326 zangst 2 0 1 463.5 0
S1 4 327 maars 2 0 2 534.5 1
S1 4 328 vruik 2 0 2 391.6 1
S1 4 329 fesie 2 0 2 515.5 1
S1 4 330 lappen 1 4,305882353 1 435.8 1
S1 4 331 inlal 2 0 2 373.8 1
S1 4 332 spleef 2 0 2 390.2 1
S1 4 333 nalm 2 0 1 437.9 0
S1 4 334 pens 1 2,329411765 1 480.1 1
S1 4 335 strot 1 4,470588235 1 425.3 1
S1 4 336 gezwil 2 0 2 587.7 1
S1 4 337 guik 2 0 2 471.3 1
S1 4 338 weids 1 3,905882353 1 662.7 1
S1 4 339 eicel 1 5,411764706 2 380.5 0
S1 4 340 suber 2 0 1 471.7 0
S1 4 341 melken 1 4,141176471 1 467.4 1
S1 4 342 wraai 2 0 2 370.3 1
S1 4 343 offen 2 0 2 432.1 1
S1 4 344 mopen 2 0 1 442.2 0
S1 4 345 prelie 2 0 2 411.1 1
S1 4 346 getij 1 3,976470588 2 429 0
S1 4 347 tolk 1 4,988235294 1 633.2 1
S1 4 348 belug 2 0 2 473.2 1
S1 4 349 plaag 1 3,411764706 2 468.6 0
S1 4 350 bode 1 3,788235294 1 705.8 1
S1 4 351 galop 1 4,235294118 1 472.6 1
S1 4 352 legen 1 3,788235294 2 526.1 0
S1 4 353 ferm 1 4,611764706 2 447.2 0
S1 4 354 lannen 2 0 2 572 1
S1 4 355 zuid 1 4,705882353 1 466.9 1
S1 4 356 baars 1 1,576470588 1 502.1 1
S1 4 357 snoken 2 0 2 477.2 1
S1 4 358 slee 1 1,035294118 1 468 1
S1 4 359 beding 1 4,329411765 2 491.1 0
S1 4 360 zoer 2 0 2 470 1
S1 4 361 spons 1 4,282352941 1 479.3 1
S1 4 362 huinig 2 0 2 532.1 1
S1 4 363 boof 2 0 2 456.2 1
S1 4 364 ronnik 2 0 2 489.2 1
S1 4 365 boeran 2 0 2 460.3 1
S1 4 366 lieb 2 0 2 497.6 1
S1 4 367 chloor 1 0,8 1 485.9 1
S1 4 368 aanhef 1 3,058823529 1 448.9 1
S1 4 369 veeg 1 3,529411765 1 630.6 1
S1 4 370 schede 1 3,152941176 1 492.3 1
S1 4 371 krot 1 3,129411764 1 446.1 1
S1 4 372 cultus 1 5,482352941 1 612.4 1
S1 4 373 zwaten 2 0 2 498.6 1
S1 4 374 gilde 1 4,4 1 469.9 1
S1 4 375 waan 1 5,458823529 2 561.1 0
S1 4 376 asfelt 2 0 2 601 1
S1 4 377 spade 1 1,858823529 2 541.7 0
S1 4 378 kinds 1 1,623529412 2 532.9 0
S1 4 379 sjaam 2 0 1 527.5 0
S1 4 380 loyaal 1 4,023529412 1 521.7 1
S1 4 381 bult 1 4,211764706 1 523.1 1
S1 4 382 pach 2 0 2 444.7 1
S1 4 383 gazet 1 1,858823529 2 620.1 0
S1 4 384 porto 1 2,305882353 2 407.6 0
S1 4 385 hilt 2 0 2 488.3 1
S1 4 386 senior 1 1,552941176 1 520.6 1
S1 4 387 allure 1 5,223529412 2 461.4 0
S1 4 388 wreef 1 1,905882353 2 406.1 0
S1 4 389 tekje 2 0 1 555.2 0
S1 4 390 tact 1 4,447058824 1 519.3 1
S1 4 391 zanger 1 5,411764706 1 426.4 1
S1 4 392 kremp 2 0 2 547.9 1
S1 4 393 vees 2 0 1 416 0
S1 4 394 rabbi 1 2,305882353 1 444 1
S1 4 395 staats 1 4,047058824 1 550.5 1
S1 4 396 nijd 1 1,929411765 1 544.7 1
S1 4 397 maling 1 2,8 2 647.4 0
S1 4 398 kwiek 1 3,529411765 2 574.9 0
S1 4 399 grijt 2 0 1 516.3 0
S1 4 400 vinnig 1 5,223529412 2 422.1 0
S1 5 1 cuur 2 0 1 533.7 0
S1 5 2 kluis 1 4,494117647 1 448.5 1
S1 5 3 cultus 1 5,482352941 1 407.1 1
S1 5 4 drumer 2 0 1 414.1 0
S1 5 5 graat 1 2,023529412 2 545.9 0
S1 5 6 remp 2 0 2 445.7 1
S1 5 7 meker 2 0 2 440.4 1
S1 5 8 zoer 2 0 2 481.6 1
S1 5 9 sjaam 2 0 2 383 1
S1 5 10 oloud 2 0 2 409.9 1
S1 5 11 schilp 2 0 1 420.1 0
S1 5 12 etoge 2 0 2 516.8 1
S1 5 13 vieet 2 0 2 398.2 1
S1 5 14 charte 2 0 2 632.2 1
S1 5 15 paadje 1 1,905882353 2 355.1 0
S1 5 16 idylle 1 2,423529412 1 508.7 1
S1 5 17 moelas 2 0 2 498.9 1
S1 5 18 ganre 2 0 2 422.2 1
S1 5 19 rimboe 1 1,505882353 2 355.4 0
S1 5 20 waald 2 0 2 546.1 1
S1 5 21 nalm 2 0 2 476.3 1
S1 5 22 schul 2 0 1 544.3 0
S1 5 23 wimpel 1 1,694117647 1 561.8 1
S1 5 24 ralief 2 0 2 461 1
S1 5 25 ruipen 2 0 2 502.7 1
S1 5 26 wossen 2 0 2 477.6 1
S1 5 27 revers 1 2,635294118 2 538.4 0
S1 5 28 wasbak 1 3,788235294 1 541 1
S1 5 29 wenx 2 0 2 469.3 1
S1 5 30 steppe 1 3,717647059 1 608.5 1
S1 5 31 dijp 2 0 2 507.6 1
S1 5 32 domweg 1 5,176470588 1 535.1 1
S1 5 33 kwaken 1 2,752941176 2 459.3 0
S1 5 34 duik 1 1,929411765 1 456.1 1
S1 5 35 typen 1 3,623529412 1 545.2 1
S1 5 36 bagen 2 0 2 455.6 1
S1 5 37 konk 2 0 2 422.3 1
S1 5 38 plauw 2 0 2 629.8 1
S1 5 39 danser 1 4,070588235 1 523 1
S1 5 40 zegel 1 3,529411765 1 530.8 1
S1 5 41 kers 1 4,658823529 1 545.4 1
S1 5 42 rieten 1 4,258823529 2 436.2 0
S1 5 43 tulp 1 2,776470588 1 564.2 1
S1 5 44 vinnig 1 5,223529412 2 544.1 0
S1 5 45 zindig 2 0 2 485.1 1
S1 5 46 room 1 5,458823529 1 500.8 1
S1 5 47 zinnen 1 4,282352941 1 682.3 1
S1 5 48 zuid 1 4,705882353 1 497.1 1
S1 5 49 maling 1 2,8 2 493.6 0
S1 5 50 vees 2 0 2 462 1
S1 5 51 parxum 2 0 2 488.7 1
S1 5 52 snoet 1 1,741176471 2 610.1 0
S1 5 53 strot 1 4,470588235 1 658 1
S1 5 54 dreed 2 0 2 500.4 1
S1 5 55 bijval 1 3,811764706 1 475.2 1
S1 5 56 winven 2 0 2 456.8 1
S1 5 57 raspen 1 4,776470588 2 407.1 0
S1 5 58 sooie 2 0 2 475.6 1
S1 5 59 fiscus 1 3,929411765 2 493.7 0
S1 5 60 gezwil 2 0 2 560.9 1
S1 5 61 spade 1 1,858823529 1 532.2 1
S1 5 62 krap 1 4,823529412 1 621 1
S1 5 63 benul 1 3,623529412 2 476.3 0
S1 5 64 bult 1 4,211764706 1 540.6 1
S1 5 65 schut 1 1,952941176 1 660.1 1
S1 5 66 lyceum 1 3,811764706 1 508.8 1
S1 5 67 rasijn 2 0 2 563.7 1
S1 5 68 vezel 1 5,482352941 2 536.1 0
S1 5 69 grijt 2 0 2 748.9 1
S1 5 70 plaag 1 3,411764706 1 526.2 1
S1 5 71 aanket 2 0 2 491.3 1
S1 5 72 jury 1 3,835294118 1 443.9 1
S1 5 73 decar 2 0 2 434.3 1
S1 5 74 kwiek 1 3,529411765 2 467.2 0
S1 5 75 pyfama 2 0 2 436.1 1
S1 5 76 vruik 2 0 2 540.5 1
S1 5 77 zanger 1 5,411764706 1 490.3 1
S1 5 78 scheks 2 0 2 437.3 1
S1 5 79 kopij 1 2,211764706 1 434.3 1
S1 5 80 gemeld 1 4,541176471 2 443.9 0
S1 5 81 moes 1 1,223529412 1 461.7 1
S1 5 82 lieb 2 0 2 394 1
S1 5 83 guik 2 0 2 445.5 1
S1 5 84 hoken 2 0 2 517.3 1
S1 5 85 onwaar 1 3,623529412 2 395.5 0
S1 5 86 alkook 2 0 2 410.7 1
S1 5 87 mopen 2 0 1 442.8 0
S1 5 88 lemmet 1 2,635294118 1 508.5 1
S1 5 89 geroep 1 4,141176471 2 411.4 0
S1 5 90 regie 1 2,823529412 2 499 0
S1 5 91 ontbag 2 0 2 602.6 1
S1 5 92 gros 1 2,8 1 551.9 1
S1 5 93 puid 2 0 1 426.3 0
S1 5 94 versus 1 4,494117647 2 459.6 0
S1 5 95 clown 1 4,752941176 1 484.1 1
S1 5 96 prok 2 0 2 458.2 1
S1 5 97 alpoor 2 0 2 460.7 1
S1 5 98 miniem 1 3,905882353 2 500.7 0
S1 5 99 vernal 2 0 1 595.3 0
S1 5 100 index 1 4,941176471 2 331.1 0
S1 5 101 zwaten 2 0 2 507.9 1
S1 5 102 lerder 2 0 2 500.7 1
S1 5 103 bortie 2 0 2 478.4 1
S1 5 104 kremp 2 0 2 414.3 1
S1 5 105 huinig 2 0 1 474.1 0
S1 5 106 bluier 2 0 2 514.6 1
S1 5 107 jargon 1 4,094117647 1 481.8 1
S1 5 108 merg 1 3,741176471 2 640.8 0
S1 5 109 loyaal 1 4,023529412 1 458.8 1
S1 5 110 vruger 2 0 2 500.4 1
S1 5 111 zwaluw 1 4,8 1 473.4 1
S1 5 112 brons 1 2,870588235 2 524.4 0
S1 5 113 rabbi 1 2,305882353 1 379.4 1
S1 5 114 fjord 1 3,882352941 1 493.7 1
S1 5 115 belk 2 0 2 499.5 1
S1 5 116 grocht 2 0 1 470.9 0
S1 5 117 weel 2 0 2 458.9 1
S1 5 118 krong 2 0 2 542.1 1
S1 5 119 kapje 1 2,023529412 1 467.7 1
S1 5 120 puzzel 1 3,647058824 1 553.8 1
S1 5 121 deppen 1 1,6 1 518.7 1
S1 5 122 helte 2 0 2 449.9 1
S1 5 123 breik 2 0 2 417.6 1
S1 5 124 lakei 1 2,823529412 1 485.1 1
S1 5 125 muil 1 3,364705882 1 545.3 1
S1 5 126 roen 2 0 2 501.8 1
S1 5 127 suber 2 0 1 432 0
S1 5 128 imver 2 0 2 317.9 1
S1 5 129 bever 1 1,176470588 1 564.5 1
S1 5 130 ronnik 2 0 2 426.2 1
S1 5 131 boffen 1 2,564705882 2 448.9 0
S1 5 132 krot 1 3,129411764 1 424.6 1
S1 5 133 geming 2 0 2 535.6 1
S1 5 134 agesda 2 0 2 411.9 1
S1 5 135 stokje 1 3,788235294 2 407.5 0
S1 5 136 bans 2 0 1 636.6 0
S1 5 137 pens 1 2,329411765 1 531.4 1
S1 5 138 trec 2 0 2 487.5 1
S1 5 139 kuip 1 4,470588235 1 428.6 1
S1 5 140 hamp 2 0 2 452.5 1
S1 5 141 mistie 2 0 2 542 1
S1 5 142 uitzet 1 1,129411765 1 433.7 1
S1 5 143 smeris 1 5,341176471 1 453.1 1
S1 5 144 zagen 1 5,035294118 1 464.4 1
S1 5 145 salode 2 0 2 551.1 1
S1 5 146 wago 2 0 2 452.2 1
S1 5 147 pend 2 0 2 639.6 1
S1 5 148 gaag 2 0 1 406.4 0
S1 5 149 puilen 1 4,682352941 1 478.8 1
S1 5 150 trio 1 3,223529412 1 474.9 1
S1 5 151 kampen 1 3,458823529 2 462.1 0
S1 5 152 vouw 1 3,529411765 1 442.5 1
S1 5 153 durst 2 0 2 441.3 1
S1 5 154 spons 1 4,282352941 1 432.9 1
S1 5 155 pach 2 0 2 541.1 1
S1 5 156 forel 1 3,105882353 2 439.4 0
S1 5 157 schork 2 0 2 509.1 1
S1 5 158 angel 1 4,517647059 1 444.3 1
S1 5 159 miegen 2 0 2 472.7 1
S1 5 160 polder 1 4,776470588 1 526.3 1
S1 5 161 tweeze 2 0 2 453.3 1
S1 5 162 hurken 1 3,882352941 2 420.9 0
S1 5 163 faam 1 5,129411765 2 463.9 0
S1 5 164 cier 2 0 2 550.7 1
S1 5 165 klaup 2 0 2 418.6 1
S1 5 166 afbruk 2 0 1 470.9 0
S1 5 167 koom 2 0 1 502.6 0
S1 5 168 opsten 2 0 2 386.1 1
S1 5 169 weids 1 3,905882353 1 552.7 1
S1 5 170 kereik 2 0 2 405.7 1
S1 5 171 ezol 2 0 2 430.3 1
S1 5 172 dagma 2 0 2 464.6 1
S1 5 173 pluis 1 1,294117647 1 486.5 1
S1 5 174 peide 2 0 2 453.4 1
S1 5 175 inlal 2 0 2 395.4 1
S1 5 176 geide 2 0 2 418.6 1
S1 5 177 dynamo 1 0,729411765 1 471.3 1
S1 5 178 pastor 1 2,541176471 1 419.7 1
S1 5 179 ripen 2 0 2 483.9 1
S1 5 180 zomers 1 5,482352941 1 442.5 1
S1 5 181 stru 2 0 1 480.3 0
S1 5 182 draf 1 3,811764706 2 434.7 0
S1 5 183 walmen 1 3,576470588 2 531.8 0
S1 5 184 roedel 1 1,082352941 1 459.2 1
S1 5 185 apiche 2 0 2 459 1
S1 5 186 wreef 1 1,905882353 2 420.5 0
S1 5 187 bres 1 3,952941176 1 602.6 1
S1 5 188 boof 2 0 2 612.3 1
S1 5 189 nauw 1 4,470588235 2 472.1 0
S1 5 190 strik 1 4,635294118 1 556.4 1
S1 5 191 tros 1 5,341176471 1 463.7 1
S1 5 192 toorn 1 4,282352941 2 500.8 0
S1 5 193 kastje 1 3,858823529 2 463.7 0
S1 5 194 veeg 1 3,529411765 1 33.2 1
S1 5 195 epele 2 0 2 336.1 1
S1 5 196 lorst 2 0 2 507.9 1
S1 5 197 schede 1 3,152941176 2 448.5 0
S1 5 198 kraal 1 4,305882353 1 772.1 1
S1 5 199 reen 2 0 2 730.8 1
S1 5 200 barok 1 2,4 1 410.9 1
S1 5 201 pion 1 2,117647059 1 467.9 1
S1 5 202 bilar 2 0 1 523.7 0
S1 5 203 noek 2 0 2 468.7 1
S1 5 204 civiek 2 0 2 445.5 1
S1 5 205 tobben 1 5,011764706 1 451.8 1
S1 5 206 safari 1 1,082352941 1 446.2 1
S1 5 207 vaccin 1 0,705882353 2 397 0
S1 5 208 prelie 2 0 2 541.3 1
S1 5 209 klim 1 2,023529412 1 456.2 1
S1 5 210 stees 2 0 2 500.9 1
S1 5 211 staats 1 4,047058824 1 507 1
S1 5 212 woelig 1 3,6 2 410.9 0
S1 5 213 fuif 1 1,788235294 1 375.2 1
S1 5 214 murt 2 0 2 589.6 1
S1 5 215 iptiek 2 0 2 487.1 1
S1 5 216 boeran 2 0 2 438.2 1
S1 5 217 snoken 2 0 1 474.1 0
S1 5 218 butje 2 0 2 410.6 1
S1 5 219 fesie 2 0 2 565.6 1
S1 5 220 beding 1 4,329411765 2 412.5 0
S1 5 221 eber 2 0 2 511.3 1
S1 5 222 ruusen 2 0 2 424.7 1
S1 5 223 kinds 1 1,623529412 1 521.2 1
S1 5 224 kledij 1 3,811764706 2 463.9 0
S1 5 225 tiek 2 0 2 529.5 1
S1 5 226 fasje 2 0 2 480.2 1
S1 5 227 pruken 2 0 2 508.7 1
S1 5 228 hoera 1 3,905882353 1 441.8 1
S1 5 229 bekker 2 0 2 421.8 1
S1 5 230 hilt 2 0 2 514.9 1
S1 5 231 proei 2 0 2 603.2 1
S1 5 232 tedeer 2 0 2 386.8 1
S1 5 233 vlerk 1 1,2 1 492 1
S1 5 234 deman 2 0 2 452.7 1
S1 5 235 nuig 2 0 2 435.2 1
S1 5 236 aupo 2 0 2 434.5 1
S1 5 237 kelom 2 0 2 451.7 1
S1 5 238 limiet 1 2,588235294 1 532.6 1
S1 5 239 kablet 2 0 2 456.3 1
S1 5 240 blende 2 0 1 602.4 0
S1 5 241 astma 1 3,882352941 1 529.6 1
S1 5 242 dond 2 0 2 526.5 1
S1 5 243 orzet 2 0 2 479.8 1
S1 5 244 kaveel 2 0 1 588.5 0
S1 5 245 tist 2 0 1 459 0
S1 5 246 postes 2 0 2 450.2 1
S1 5 247 kreek 1 2,588235294 2 435.1 0
S1 5 248 vioel 2 0 2 409.4 1
S1 5 249 smemen 2 0 1 562.1 0
S1 5 250 divun 2 0 2 456.2 1
S1 5 251 wesp 1 4,070588235 1 495.8 1
S1 5 252 rinden 2 0 2 425 1
S1 5 253 entree 1 4,658823529 1 543.5 1
S1 5 254 hendel 1 1,882352941 1 465.4 1
S1 5 255 slaw 2 0 1 468.4 0
S1 5 256 nijd 1 1,929411765 1 661.6 1
S1 5 257 glak 2 0 2 443.8 1
S1 5 258 tolk 1 4,988235294 1 433.2 1
S1 5 259 kodeet 2 0 2 388.9 1
S1 5 260 korps 1 3,741176471 1 469.8 1
S1 5 261 doer 2 0 2 576.9 1
S1 5 262 behept 1 2,164705882 2 409 0
S1 5 263 knavel 2 0 1 435.1 0
S1 5 264 vargif 2 0 2 404.3 1
S1 5 265 offen 2 0 2 719.8 1
S1 5 266 welp 1 1,741176471 1 446.4 1
S1 5 267 lijmen 1 5,082352941 1 450.9 1
S1 5 268 chloor 1 0,8 1 501.3 1
S1 5 269 stoos 2 0 2 516.5 1
S1 5 270 bode 1 3,788235294 2 400.6 0
S1 5 271 zide 2 0 2 600.5 1
S1 5 272 cement 1 4,329411765 1 459.6 1
S1 5 273 zondje 2 0 1 623.4 0
S1 5 274 ferm 1 4,611764706 2 478.2 0
S1 5 275 lomp 1 3,058823529 1 469 1
S1 5 276 getij 1 3,976470588 1 455.5 1
S1 5 277 baars 1 1,576470588 1 469.5 1
S1 5 278 album 1 4,094117647 1 448.8 1
S1 5 279 tact 1 4,447058824 2 444.6 0
S1 5 280 ponk 2 0 2 529.9 1
S1 5 281 gesoe 2 0 2 504.3 1
S1 5 282 birst 2 0 2 422.6 1
S1 5 283 zeim 2 0 2 435.1 1
S1 5 284 senior 1 1,552941176 1 451.7 1
S1 5 285 tekje 2 0 1 457.1 0
S1 5 286 hark 1 1,529411765 2 380.5 0
S1 5 287 brum 2 0 2 466.2 1
S1 5 288 accu 1 1,317647059 1 473.1 1
S1 5 289 zeelde 2 0 2 468.4 1
S1 5 290 dikte 1 4,235294118 2 381.1 0
S1 5 291 kiedje 2 0 2 615.7 1
S1 5 292 snik 1 4 2 412.5 0
S1 5 293 vlicht 2 0 2 465.4 1
S1 5 294 zangst 2 0 2 370.2 1
S1 5 295 zuik 2 0 2 459.2 1
S1 5 296 jorist 2 0 2 430.5 1
S1 5 297 belug 2 0 2 407.3 1
S1 5 298 hiemen 2 0 2 430.2 1
S1 5 299 slee 1 1,035294118 2 407 0
S1 5 300 galop 1 4,235294118 2 440.8 0
S1 5 301 laande 2 0 1 414.4 0
S1 5 302 stiem 2 0 2 393.6 1
S1 5 303 joelen 1 4,352941176 1 432.2 1
S1 5 304 nijtje 2 0 1 459.4 0
S1 5 305 borg 1 2,847058824 1 567.6 1
S1 5 306 troun 2 0 1 536.4 0
S1 5 307 reuk 1 5,388235294 2 520.9 0
S1 5 308 odem 2 0 2 609.5 1
S1 5 309 oase 1 3,811764706 2 378.4 0
S1 5 310 linter 2 0 2 436.6 1
S1 5 311 sloert 2 0 2 526.8 1
S1 5 312 finds 2 0 2 443.8 1
S1 5 313 gazet 1 1,858823529 2 473.2 0
S1 5 314 ploei 2 0 2 497.6 1
S1 5 315 goer 2 0 2 546.5 1
S1 5 316 graak 2 0 2 433 1
S1 5 317 tagel 2 0 2 434.3 1
S1 5 318 lonig 2 0 2 472.2 1
S1 5 319 napen 2 0 2 514.7 1
S1 5 320 vocta 2 0 2 461.6 1
S1 5 321 gilde 1 4,4 2 516.6 0
S1 5 322 defect 1 3,388235294 1 58.3 1
S1 5 323 kajel 2 0 2 368 1
S1 5 324 spleef 2 0 2 506.8 1
S1 5 325 asfelt 2 0 2 440.3 1
S1 5 326 hubeur 2 0 2 457.7 1
S1 5 327 kossa 2 0 2 474 1
S1 5 328 honen 1 5,247058824 2 585.6 0
S1 5 329 rier 2 0 2 494 1
S1 5 330 lappen 1 4,305882353 1 551.2 1
S1 5 331 leuze 1 4,4 2 461.3 0
S1 5 332 toeter 1 1,764705882 1 418.8 1
S1 5 333 melken 1 4,141176471 1 493.9 1
S1 5 334 amtrek 2 0 2 661.1 1
S1 5 335 telen 1 2,023529412 2 462.6 0
S1 5 336 etmaal 1 4,752941176 1 489.6 1
S1 5 337 opiam 2 0 2 439.6 1
S1 5 338 orinje 2 0 2 484.1 1
S1 5 339 loof 1 2,423529412 1 520.9 1
S1 5 340 wuren 2 0 2 479.7 1
S1 5 341 glazig 1 4,329411765 1 460.1 1
S1 5 342 gedag 1 2,047058824 1 461.7 1
S1 5 343 mank 1 3,788235294 2 484.2 0
S1 5 344 wokker 2 0 2 743.3 1
S1 5 345 maars 2 0 2 663 1
S1 5 346 invoer 1 5,435294118 1 502.1 1
S1 5 347 parket 1 4,258823529 2 500.3 0
S1 5 348 sloep 1 5,388235294 2 475.1 0
S1 5 349 panter 1 3,529411765 1 391.8 1
S1 5 350 hang 1 3,623529412 1 466.5 1
S1 5 351 aanhef 1 3,058823529 1 438.4 1
S1 5 352 porto 1 2,305882353 2 402 0
S1 5 353 optie 1 2,823529412 1 408 1
S1 5 354 uven 2 0 2 446.7 1
S1 5 355 ruis 1 1,764705882 1 474.7 1
S1 5 356 legen 1 3,788235294 1 492 1
S1 5 357 lannen 2 0 1 545.6 0
S1 5 358 pikant 1 5,482352941 2 381.5 0
S1 5 359 proper 1 3,741176471 1 590.5 1
S1 5 360 jeer 2 0 2 427.3 1
S1 5 361 noemer 1 4,847058824 1 399.1 1
S1 5 362 sluis 1 4,211764706 1 470.7 1
S1 5 363 haaien 1 0,352941176 1 440.1 1
S1 5 364 ledig 1 3,035294118 1 430.5 1
S1 5 365 vlijt 1 2,447058824 2 503.6 0
S1 5 366 caak 2 0 2 475 1
S1 5 367 tonnel 2 0 1 380 0
S1 5 368 blaam 1 1,835294118 2 369.1 0
S1 5 369 eicel 1 5,411764706 2 481.6 0
S1 5 370 hirst 2 0 2 514.5 1
S1 5 371 solide 1 5,458823529 2 503.3 0
S1 5 372 gewend 1 1,576470588 1 497 1
S1 5 373 tarwe 1 4,8 1 577.8 1
S1 5 374 houtje 1 4,894117647 1 567.7 1
S1 5 375 knol 1 4,470588235 1 525.1 1
S1 5 376 jurig 2 0 2 537.7 1
S1 5 377 orakel 1 2,517647059 1 550.1 1
S1 5 378 flunk 2 0 2 440.9 1
S1 5 379 sessie 1 3,176470588 1 507 1
S1 5 380 wijlen 1 3,6 1 456.6 1
S1 5 381 bankje 1 3,223529412 1 475.6 1
S1 5 382 allure 1 5,223529412 1 404.6 1
S1 5 383 schoon 1 3,552941176 1 445.8 1
S1 5 384 barmer 2 0 1 555.5 0
S1 5 385 kukker 2 0 2 702.1 1
S1 5 386 waan 1 5,458823529 2 441.6 0
S1 5 387 sjerp 1 1,458823529 1 379.6 1
S1 5 388 elan 1 3,623529412 2 425.3 0
S1 5 389 azen 1 1,764705882 1 404.2 1
S1 5 390 bestak 2 0 1 434.7 0
S1 5 391 morsen 1 4,988235294 2 373.3 0
S1 5 392 givaar 2 0 1 460.5 0
S1 5 393 wraai 2 0 2 464 1
S1 5 394 kokend 1 3,952941176 1 456.4 1
S1 5 395 spijl 1 3,764705882 2 510 0
S1 5 396 armoe 1 3,152941176 2 433.7 0
S1 5 397 umloop 2 0 1 454.4 0
S1 5 398 detter 2 0 1 481.3 0
S1 5 399 wuzig 2 0 2 464.9 1
S1 5 400 hoeden 1 0,305882353 1 466.6 1
S1 6 1 ledig 1 3,035294118 2 664.7 0
S1 6 2 leuze 1 4,4 1 540.7 1
S1 6 3 epele 2 0 2 491.9 1
S1 6 4 pyfama 2 0 2 387.9 1
S1 6 5 woelig 1 3,6 1 458.6 1
S1 6 6 sluis 1 4,211764706 1 432.7 1
S1 6 7 vinnig 1 5,223529412 2 430.3 0
S1 6 8 civiek 2 0 2 458 1
S1 6 9 gros 1 2,8 1 536.3 1
S1 6 10 mistie 2 0 2 495.7 1
S1 6 11 zagen 1 5,035294118 1 348.6 1
S1 6 12 opiam 2 0 2 341.4 1
S1 6 13 paadje 1 1,905882353 1 386.6 1
S1 6 14 staats 1 4,047058824 1 445.4 1
S1 6 15 morsen 1 4,988235294 1 507.5 1
S1 6 16 cier 2 0 2 454.5 1
S1 6 17 lomp 1 3,058823529 1 387.5 1
S1 6 18 wesp 1 4,070588235 1 358.9 1
S1 6 19 muil 1 3,364705882 1 442.6 1
S1 6 20 fesie 2 0 2 452.3 1
S1 6 21 napen 2 0 1 437.4 0
S1 6 22 pens 1 2,329411765 1 425.3 1
S1 6 23 oase 1 3,811764706 2 369.1 0
S1 6 24 tact 1 4,447058824 2 461.3 0
S1 6 25 linter 2 0 2 541 1
S1 6 26 lakei 1 2,823529412 1 376.6 1
S1 6 27 toeter 1 1,764705882 1 379.1 1
S1 6 28 eicel 1 5,411764706 1 425.6 1
S1 6 29 ontbag 2 0 2 486.4 1
S1 6 30 rabbi 1 2,305882353 1 344 1
S1 6 31 rinden 2 0 1 376.8 0
S1 6 32 vioel 2 0 1 421.1 0
S1 6 33 lijmen 1 5,082352941 1 374.7 1
S1 6 34 ruipen 2 0 1 501.2 0
S1 6 35 wuzig 2 0 2 516.8 1
S1 6 36 puid 2 0 1 405.3 0
S1 6 37 angel 1 4,517647059 2 419.6 0
S1 6 38 ploei 2 0 1 396 0
S1 6 39 bans 2 0 1 470.7 0
S1 6 40 safari 1 1,082352941 2 475.9 0
S1 6 41 pikant 1 5,482352941 2 486.1 0
S1 6 42 blaam 1 1,835294118 2 501.8 0
S1 6 43 moelas 2 0 2 461.6 1
S1 6 44 zuid 1 4,705882353 1 428.7 1
S1 6 45 pastor 1 2,541176471 2 430.4 0
S1 6 46 korps 1 3,741176471 1 495.3 1
S1 6 47 eber 2 0 2 459.8 1
S1 6 48 welp 1 1,741176471 1 390.3 1
S1 6 49 cement 1 4,329411765 2 498.9 0
S1 6 50 asfelt 2 0 2 492.6 1
S1 6 51 hamp 2 0 2 410.6 1
S1 6 52 lieb 2 0 1 490 0
S1 6 53 prok 2 0 2 483.4 1
S1 6 54 tarwe 1 4,8 1 517.8 1
S1 6 55 agesda 2 0 2 404.3 1
S1 6 56 rasijn 2 0 1 458.9 0
S1 6 57 parxum 2 0 2 507.8 1
S1 6 58 weids 1 3,905882353 2 460.7 0
S1 6 59 vlijt 1 2,447058824 1 563.4 1
S1 6 60 deman 2 0 2 642.8 1
S1 6 61 vocta 2 0 2 411.3 1
S1 6 62 winven 2 0 2 463.7 1
S1 6 63 boeran 2 0 2 477.5 1
S1 6 64 dreed 2 0 2 462 1
S1 6 65 legen 1 3,788235294 1 511.6 1
S1 6 66 krap 1 4,823529412 1 473.6 1
S1 6 67 houtje 1 4,894117647 1 482.3 1
S1 6 68 waan 1 5,458823529 2 355.7 0
S1 6 69 regie 1 2,823529412 1 403.3 1
S1 6 70 guik 2 0 2 511 1
S1 6 71 huinig 2 0 2 440.3 1
S1 6 72 jorist 2 0 2 471.8 1
S1 6 73 limiet 1 2,588235294 1 493.9 1
S1 6 74 benul 1 3,623529412 2 423.5 0
S1 6 75 hendel 1 1,882352941 1 395.3 1
S1 6 76 zwaten 2 0 1 516 0
S1 6 77 sjaam 2 0 2 479 1
S1 6 78 belk 2 0 2 610.3 1
S1 6 79 smemen 2 0 2 385.5 1
S1 6 80 cultus 1 5,482352941 1 565.5 1
S1 6 81 dond 2 0 1 472.6 0
S1 6 82 vouw 1 3,529411765 1 641.3 1
S1 6 83 wenx 2 0 2 397.7 1
S1 6 84 album 1 4,094117647 1 475.4 1
S1 6 85 borg 1 2,847058824 2 492.9 0
S1 6 86 accu 1 1,317647059 1 514.1 1
S1 6 87 wuren 2 0 2 465.9 1
S1 6 88 wreef 1 1,905882353 2 397 0
S1 6 89 vlerk 1 1,2 2 479.6 0
S1 6 90 pruken 2 0 2 573 1
S1 6 91 trio 1 3,223529412 1 444.2 1
S1 6 92 defect 1 3,388235294 1 556.6 1
S1 6 93 butje 2 0 2 575.7 1
S1 6 94 birst 2 0 2 423 1
S1 6 95 helte 2 0 2 358.9 1
S1 6 96 kwaken 1 2,752941176 2 525.8 0
S1 6 97 lappen 1 4,305882353 1 477 1
S1 6 98 ripen 2 0 2 459.8 1
S1 6 99 chloor 1 0,8 1 449 1
S1 6 100 uven 2 0 2 471.1 1
S1 6 101 wago 2 0 1 575.1 0
S1 6 102 kaveel 2 0 2 398.5 1
S1 6 103 sloert 2 0 2 587 1
S1 6 104 etoge 2 0 2 429.2 1
S1 6 105 boof 2 0 2 469.4 1
S1 6 106 schoon 1 3,552941176 1 456.3 1
S1 6 107 tros 1 5,341176471 2 370.6 0
S1 6 108 dagma 2 0 2 502.6 1
S1 6 109 porto 1 2,305882353 1 349.2 1
S1 6 110 bekker 2 0 1 475.4 0
S1 6 111 gazet 1 1,858823529 2 492.2 0
S1 6 112 sooie 2 0 2 366.5 1
S1 6 113 klim 1 2,023529412 1 417.6 1
S1 6 114 drumer 2 0 2 733.3 1
S1 6 115 plaag 1 3,411764706 2 568.4 0
S1 6 116 kereik 2 0 2 359.8 1
S1 6 117 bestak 2 0 2 435.1 1
S1 6 118 baars 1 1,576470588 1 552.6 1
S1 6 119 slaw 2 0 2 477.2 1
S1 6 120 tedeer 2 0 2 385.3 1
S1 6 121 vezel 1 5,482352941 1 442 1
S1 6 122 alkook 2 0 2 416.8 1
S1 6 123 nijtje 2 0 2 596.9 1
S1 6 124 zinnen 1 4,282352941 2 362.1 0
S1 6 125 spade 1 1,858823529 2 515.9 0
S1 6 126 kinds 1 1,623529412 2 406.8 0
S1 6 127 kledij 1 3,811764706 1 460.5 1
S1 6 128 kelom 2 0 2 443.8 1
S1 6 129 vargif 2 0 2 360.5 1
S1 6 130 kossa 2 0 2 445.6 1
S1 6 131 bluier 2 0 2 445.7 1
S1 6 132 stiem 2 0 1 422.5 0
S1 6 133 slee 1 1,035294118 1 441.9 1
S1 6 134 pion 1 2,117647059 1 501.1 1
S1 6 135 charte 2 0 2 463.8 1
S1 6 136 joelen 1 4,352941176 2 344 0
S1 6 137 klaup 2 0 2 470.7 1
S1 6 138 parket 1 4,258823529 1 467.6 1
S1 6 139 kopij 1 2,211764706 1 451.1 1
S1 6 140 ruusen 2 0 1 478.7 0
S1 6 141 danser 1 4,070588235 1 498.1 1
S1 6 142 puzzel 1 3,647058824 1 456.4 1
S1 6 143 stokje 1 3,788235294 1 439.4 1
S1 6 144 snoken 2 0 2 497.6 1
S1 6 145 knol 1 4,470588235 2 459.8 0
S1 6 146 belug 2 0 2 477.2 1
S1 6 147 loyaal 1 4,023529412 1 422.7 1
S1 6 148 sessie 1 3,176470588 1 493.7 1
S1 6 149 smeris 1 5,341176471 1 545.1 1
S1 6 150 vruger 2 0 2 442.9 1
S1 6 151 revers 1 2,635294118 2 377.1 0
S1 6 152 ponk 2 0 2 473.7 1
S1 6 153 domweg 1 5,176470588 1 572.4 1
S1 6 154 zoer 2 0 1 472.9 0
S1 6 155 reen 2 0 2 534.7 1
S1 6 156 tiek 2 0 2 416.3 1
S1 6 157 wraai 2 0 2 369.2 1
S1 6 158 bagen 2 0 1 396.6 0
S1 6 159 gedag 1 2,047058824 1 507.5 1
S1 6 160 mopen 2 0 1 457.7 0
S1 6 161 wokker 2 0 2 343.8 1
S1 6 162 miegen 2 0 2 432 1
S1 6 163 hubeur 2 0 2 502.5 1
S1 6 164 kwiek 1 3,529411765 2 421.2 0
S1 6 165 geroep 1 4,141176471 1 383.9 1
S1 6 166 fjord 1 3,882352941 2 410.1 0
S1 6 167 meker 2 0 2 555.1 1
S1 6 168 snoet 1 1,741176471 1 432.9 1
S1 6 169 kampen 1 3,458823529 2 487.1 0
S1 6 170 noemer 1 4,847058824 2 426.9 0
S1 6 171 elan 1 3,623529412 2 541.4 0
S1 6 172 kuip 1 4,470588235 1 442 1
S1 6 173 orakel 1 2,517647059 1 447.2 1
S1 6 174 kokend 1 3,952941176 2 471.9 0
S1 6 175 gezwil 2 0 1 454.6 0
S1 6 176 tekje 2 0 2 465.4 1
S1 6 177 vruik 2 0 2 452.7 1
S1 6 178 versus 1 4,494117647 1 478.1 1
S1 6 179 pach 2 0 2 446.3 1
S1 6 180 jurig 2 0 2 484.3 1
S1 6 181 koom 2 0 2 426.1 1
S1 6 182 vernal 2 0 2 570.7 1
S1 6 183 sloep 1 5,388235294 1 479.6 1
S1 6 184 konk 2 0 2 398.6 1
S1 6 185 hang 1 3,623529412 2 346.9 0
S1 6 186 detter 2 0 2 534 1
S1 6 187 iptiek 2 0 2 466.9 1
S1 6 188 reuk 1 5,388235294 2 322.8 0
S1 6 189 brum 2 0 2 504 1
S1 6 190 maars 2 0 2 424.3 1
S1 6 191 bult 1 4,211764706 2 457.3 0
S1 6 192 allure 1 5,223529412 2 447.8 0
S1 6 193 orzet 2 0 2 583.8 1
S1 6 194 solide 1 5,458823529 2 409.7 0
S1 6 195 wossen 2 0 1 608 0
S1 6 196 geide 2 0 1 511.5 0
S1 6 197 tagel 2 0 2 417.8 1
S1 6 198 glazig 1 4,329411765 2 390.8 0
S1 6 199 room 1 5,458823529 1 528.1 1
S1 6 200 spijl 1 3,764705882 1 420.4 1
S1 6 201 flunk 2 0 2 450.5 1
S1 6 202 bres 1 3,952941176 1 454.4 1
S1 6 203 nauw 1 4,470588235 1 461 1
S1 6 204 spons 1 4,282352941 1 451.6 1
S1 6 205 zwaluw 1 4,8 1 450.7 1
S1 6 206 ezol 2 0 1 421 0
S1 6 207 faam 1 5,129411765 2 360.4 0
S1 6 208 lannen 2 0 2 479.4 1
S1 6 209 dikte 1 4,235294118 1 532.7 1
S1 6 210 jeer 2 0 2 647.1 1
S1 6 211 armoe 1 3,152941176 1 413.2 1
S1 6 212 snik 1 4 1 472.2 1
S1 6 213 vaccin 1 0,705882353 1 443.3 1
S1 6 214 rieten 1 4,258823529 2 475.6 0
S1 6 215 index 1 4,941176471 2 510.7 0
S1 6 216 imver 2 0 2 501.3 1
S1 6 217 duik 1 1,929411765 1 418.5 1
S1 6 218 miniem 1 3,905882353 2 548.3 0
S1 6 219 maling 1 2,8 1 561.2 1
S1 6 220 kajel 2 0 2 522.3 1
S1 6 221 schilp 2 0 1 414.8 0
S1 6 222 senior 1 1,552941176 1 536.2 1
S1 6 223 bortie 2 0 2 499.2 1
S1 6 224 weel 2 0 2 382.5 1
S1 6 225 puilen 1 4,682352941 2 445.5 0
S1 6 226 ruis 1 1,764705882 1 488.9 1
S1 6 227 telen 1 2,023529412 1 443.2 1
S1 6 228 grocht 2 0 1 486.8 0
S1 6 229 vlicht 2 0 2 251.6 1
S1 6 230 finds 2 0 2 499.8 1
S1 6 231 behept 1 2,164705882 2 467.9 0
S1 6 232 wimpel 1 1,694117647 1 479.5 1
S1 6 233 doer 2 0 1 386.1 0
S1 6 234 roen 2 0 2 363.5 1
S1 6 235 beding 1 4,329411765 2 458.6 0
S1 6 236 fuif 1 1,788235294 1 419.6 1
S1 6 237 zegel 1 3,529411765 1 440.7 1
S1 6 238 zeim 2 0 2 481.3 1
S1 6 239 raspen 1 4,776470588 1 474.9 1
S1 6 240 melken 1 4,141176471 1 477.4 1
S1 6 241 zangst 2 0 2 564.5 1
S1 6 242 etmaal 1 4,752941176 1 503.8 1
S1 6 243 jury 1 3,835294118 1 519.7 1
S1 6 244 suber 2 0 2 555 1
S1 6 245 schut 1 1,952941176 1 523.3 1
S1 6 246 wasbak 1 3,788235294 1 605.7 1
S1 6 247 hark 1 1,529411765 2 711 0
S1 6 248 stru 2 0 2 547.1 1
S1 6 249 lyceum 1 3,811764706 1 496.5 1
S1 6 250 apiche 2 0 2 568.6 1
S1 6 251 gaag 2 0 1 379.3 0
S1 6 252 fasje 2 0 2 389.4 1
S1 6 253 zindig 2 0 2 633.5 1
S1 6 254 gilde 1 4,4 2 410.4 0
S1 6 255 orinje 2 0 2 463.9 1
S1 6 256 barok 1 2,4 2 382.1 0
S1 6 257 hilt 2 0 1 433.7 0
S1 6 258 draf 1 3,811764706 2 376.2 0
S1 6 259 veeg 1 3,529411765 1 682.2 1
S1 6 260 proei 2 0 1 408.1 0
S1 6 261 dijp 2 0 2 464.4 1
S1 6 262 divun 2 0 2 489.3 1
S1 6 263 barmer 2 0 2 406.4 1
S1 6 264 goer 2 0 2 420.2 1
S1 6 265 walmen 1 3,576470588 2 459.1 0
S1 6 266 schede 1 3,152941176 2 440.9 0
S1 6 267 hoken 2 0 2 467.1 1
S1 6 268 kukker 2 0 2 416.8 1
S1 6 269 kers 1 4,658823529 1 462.9 1
S1 6 270 murt 2 0 2 488.7 1
S1 6 271 umloop 2 0 2 532.6 1
S1 6 272 jargon 1 4,094117647 1 539.5 1
S1 6 273 tobben 1 5,011764706 2 444.4 0
S1 6 274 lorst 2 0 1 482.6 0
S1 6 275 noek 2 0 2 408.9 1
S1 6 276 kraal 1 4,305882353 1 536.4 1
S1 6 277 pend 2 0 2 454.3 1
S1 6 278 graak 2 0 2 569.1 1
S1 6 279 typen 1 3,623529412 1 463.2 1
S1 6 280 afbruk 2 0 2 482.8 1
S1 6 281 brons 1 2,870588235 2 483.5 0
S1 6 282 tweeze 2 0 2 593.8 1
S1 6 283 krong 2 0 1 426.9 0
S1 6 284 schul 2 0 1 575 0
S1 6 285 hirst 2 0 2 463.6 1
S1 6 286 graat 1 2,023529412 1 582.8 1
S1 6 287 inlal 2 0 2 449 1
S1 6 288 loof 1 2,423529412 1 534.9 1
S1 6 289 zuik 2 0 2 443.2 1
S1 6 290 lemmet 1 2,635294118 1 570.6 1
S1 6 291 zomers 1 5,482352941 1 628.5 1
S1 6 292 strik 1 4,635294118 1 498.7 1
S1 6 293 aupo 2 0 2 551.3 1
S1 6 294 givaar 2 0 2 571.6 1
S1 6 295 proper 1 3,741176471 2 604 0
S1 6 296 peide 2 0 2 515.4 1
S1 6 297 nalm 2 0 2 443.1 1
S1 6 298 aanket 2 0 2 599.4 1
S1 6 299 fiscus 1 3,929411765 2 547.9 0
S1 6 300 bode 1 3,788235294 1 0 0
S1 6 301 onwaar 1 3,623529412 1 318.7 1
S1 6 302 scheks 2 0 2 532.8 1
S1 6 303 knavel 2 0 2 547.1 1
S1 6 304 hoeden 1 0,305882353 1 474 1
S1 6 305 tonnel 2 0 2 451.8 1
S1 6 306 hoera 1 3,905882353 1 479.4 1
S1 6 307 honen 1 5,247058824 2 504.6 0
S1 6 308 strot 1 4,470588235 2 438.4 0
S1 6 309 stoos 2 0 2 507.7 1
S1 6 310 bijval 1 3,811764706 1 520.8 1
S1 6 311 getij 1 3,976470588 1 512 1
S1 6 312 ferm 1 4,611764706 2 442.4 0
S1 6 313 tist 2 0 2 660.1 1
S1 6 314 decar 2 0 2 548.4 1
S1 6 315 moes 1 1,223529412 1 445.7 1
S1 6 316 prelie 2 0 2 448.6 1
S1 6 317 vees 2 0 2 493.1 1
S1 6 318 laande 2 0 1 432.9 0
S1 6 319 ronnik 2 0 2 490.2 1
S1 6 320 hurken 1 3,882352941 1 478.6 1
S1 6 321 durst 2 0 2 391.4 1
S1 6 322 salode 2 0 2 608.7 1
S1 6 323 merg 1 3,741176471 2 438.2 0
S1 6 324 alpoor 2 0 2 458.6 1
S1 6 325 nuig 2 0 2 416.5 1
S1 6 326 kiedje 2 0 2 411.1 1
S1 6 327 breik 2 0 2 442.6 1
S1 6 328 roedel 1 1,082352941 1 619.8 1
S1 6 329 kodeet 2 0 2 444.7 1
S1 6 330 krot 1 3,129411764 1 460.3 1
S1 6 331 sjerp 1 1,458823529 2 435.2 0
S1 6 332 galop 1 4,235294118 1 509.4 1
S1 6 333 forel 1 3,105882353 1 527.8 1
S1 6 334 rier 2 0 2 483.4 1
S1 6 335 amtrek 2 0 2 378.4 1
S1 6 336 glak 2 0 1 537.3 0
S1 6 337 caak 2 0 2 501.5 1
S1 6 338 stees 2 0 2 581.4 1
S1 6 339 steppe 1 3,717647059 1 440.4 1
S1 6 340 oloud 2 0 2 431.6 1
S1 6 341 ralief 2 0 2 465.4 1
S1 6 342 postes 2 0 2 692.2 1
S1 6 343 azen 1 1,764705882 1 521.3 1
S1 6 344 rimboe 1 1,505882353 1 542.7 1
S1 6 345 nijd 1 1,929411765 2 417.7 0
S1 6 346 grijt 2 0 2 636.2 1
S1 6 347 bever 1 1,176470588 1 449.6 1
S1 6 348 astma 1 3,882352941 1 473.5 1
S1 6 349 optie 1 2,823529412 1 433.1 1
S1 6 350 boffen 1 2,564705882 1 433.5 1
S1 6 351 kablet 2 0 2 638.2 1
S1 6 352 pluis 1 1,294117647 2 521.7 0
S1 6 353 odem 2 0 2 510.7 1
S1 6 354 bankje 1 3,223529412 1 491.4 1
S1 6 355 zeelde 2 0 2 513.8 1
S1 6 356 panter 1 3,529411765 1 498 1
S1 6 357 wijlen 1 3,6 2 447.7 0
S1 6 358 dynamo 1 0,729411765 1 461 1
S1 6 359 remp 2 0 2 541.8 1
S1 6 360 mank 1 3,788235294 2 486.6 0
S1 6 361 waald 2 0 1 20.7 0
S1 6 362 zide 2 0 2 293.4 1
S1 6 363 zondje 2 0 2 497.8 1
S1 6 364 trec 2 0 2 555.5 1
S1 6 365 lonig 2 0 2 393.8 1
S1 6 366 bilar 2 0 2 485.5 1
S1 6 367 invoer 1 5,435294118 1 531.9 1
S1 6 368 schork 2 0 2 575.1 1
S1 6 369 offen 2 0 1 482.3 0
S1 6 370 troun 2 0 2 492.1 1
S1 6 371 toorn 1 4,282352941 1 449.2 1
S1 6 372 tulp 1 2,776470588 1 492.2 1
S1 6 373 lerder 2 0 2 530.5 1
S1 6 374 kremp 2 0 2 723.2 1
S1 6 375 zanger 1 5,411764706 1 469.7 1
S1 6 376 haaien 1 0,352941176 1 508.5 1
S1 6 377 spleef 2 0 2 519.5 1
S1 6 378 entree 1 4,658823529 1 519.9 1
S1 6 379 kreek 1 2,588235294 2 508.9 0
S1 6 380 ganre 2 0 2 488.7 1
S1 6 381 gemeld 1 4,541176471 1 657.2 1
S1 6 382 cuur 2 0 2 490.4 1
S1 6 383 gesoe 2 0 2 477.7 1
S1 6 384 hiemen 2 0 2 536 1
S1 6 385 opsten 2 0 2 542 1
S1 6 386 vieet 2 0 2 476.3 1
S1 6 387 plauw 2 0 1 577 0
S1 6 388 clown 1 4,752941176 1 450.1 1
S1 6 389 polder 1 4,776470588 2 396.9 0
S1 6 390 geming 2 0 2 571.9 1
S1 6 391 kastje 1 3,858823529 1 499.4 1
S1 6 392 kapje 1 2,023529412 1 409.3 1
S1 6 393 blende 2 0 2 435.4 1
S1 6 394 gewend 1 1,576470588 1 492.1 1
S1 6 395 uitzet 1 1,129411765 1 641.8 1
S1 6 396 aanhef 1 3,058823529 1 456.6 1
S1 6 397 deppen 1 1,6 1 430.6 1
S1 6 398 tolk 1 4,988235294 1 491.2 1
S1 6 399 kluis 1 4,494117647 1 483.5 1
S1 6 400 idylle 1 2,423529412 2 484.5 0
S1 7 1 kajel 2 0 2 568.1 1
S1 7 2 toorn 1 4,282352941 1 529.6 1
S1 7 3 schoon 1 3,552941176 1 482.3 1
S1 7 4 hoeden 1 0,305882353 1 584.7 1
S1 7 5 honen 1 5,247058824 2 503.6 0
S1 7 6 deppen 1 1,6 1 423.4 1
S1 7 7 moelas 2 0 2 403.7 1
S1 7 8 kinds 1 1,623529412 2 612.4 0
S1 7 9 reen 2 0 2 437.3 1
S1 7 10 jeer 2 0 2 419.5 1
S1 7 11 ruis 1 1,764705882 1 450 1
S1 7 12 weids 1 3,905882353 1 561.1 1
S1 7 13 beding 1 4,329411765 2 553.4 0
S1 7 14 roedel 1 1,082352941 1 493.2 1
S1 7 15 wago 2 0 2 544.7 1
S1 7 16 kodeet 2 0 2 417.3 1
S1 7 17 ponk 2 0 2 697.1 1
S1 7 18 versus 1 4,494117647 1 433.3 1
S1 7 19 kaveel 2 0 2 567.5 1
S1 7 20 gewend 1 1,576470588 1 470.1 1
S1 7 21 puid 2 0 2 593.6 1
S1 7 22 zagen 1 5,035294118 1 444.8 1
S1 7 23 tros 1 5,341176471 1 442.8 1
S1 7 24 troun 2 0 2 421.3 1
S1 7 25 kopij 1 2,211764706 1 569.1 1
S1 7 26 snik 1 4 1 477.8 1
S1 7 27 wenx 2 0 2 455.9 1
S1 7 28 etmaal 1 4,752941176 1 594.9 1
S1 7 29 bluier 2 0 2 531 1
S1 7 30 wokker 2 0 2 518.5 1
S1 7 31 belug 2 0 2 433.4 1
S1 7 32 ripen 2 0 2 486.7 1
S1 7 33 gazet 1 1,858823529 2 465.3 0
S1 7 34 benul 1 3,623529412 2 410.5 0
S1 7 35 tobben 1 5,011764706 1 499.8 1
S1 7 36 plauw 2 0 2 598.8 1
S1 7 37 vruik 2 0 2 440.7 1
S1 7 38 kledij 1 3,811764706 1 552 1
S1 7 39 puilen 1 4,682352941 1 420.6 1
S1 7 40 jargon 1 4,094117647 1 476.7 1
S1 7 41 tedeer 2 0 2 554.3 1
S1 7 42 schede 1 3,152941176 1 497.1 1
S1 7 43 zuid 1 4,705882353 1 508.9 1
S1 7 44 bever 1 1,176470588 1 483.3 1
S1 7 45 uven 2 0 2 557.7 1
S1 7 46 tulp 1 2,776470588 1 500.4 1
S1 7 47 borg 1 2,847058824 1 485.2 1
S1 7 48 legen 1 3,788235294 1 531 1
S1 7 49 mopen 2 0 1 555.5 0
S1 7 50 doer 2 0 2 515.4 1
S1 7 51 kablet 2 0 2 548 1
S1 7 52 deman 2 0 2 550.9 1
S1 7 53 tist 2 0 2 474.7 1
S1 7 54 kossa 2 0 2 515.8 1
S1 7 55 boof 2 0 2 657.6 1
S1 7 56 noek 2 0 2 434.4 1
S1 7 57 defect 1 3,388235294 1 450.5 1
S1 7 58 kampen 1 3,458823529 1 487.9 1
S1 7 59 spleef 2 0 2 560.6 1
S1 7 60 miniem 1 3,905882353 2 398.2 0
S1 7 61 dond 2 0 2 550.1 1
S1 7 62 draf 1 3,811764706 1 488.9 1
S1 7 63 sessie 1 3,176470588 1 447.6 1
S1 7 64 aanhef 1 3,058823529 1 511.1 1
S1 7 65 civiek 2 0 2 498.5 1
S1 7 66 charte 2 0 2 596.3 1
S1 7 67 tagel 2 0 2 428.6 1
S1 7 68 bres 1 3,952941176 1 555.2 1
S1 7 69 smeris 1 5,341176471 1 503.8 1
S1 7 70 angel 1 4,517647059 1 527.7 1
S1 7 71 rabbi 1 2,305882353 1 602.4 1
S1 7 72 baars 1 1,576470588 1 521.2 1
S1 7 73 kers 1 4,658823529 1 566 1
S1 7 74 birst 2 0 2 448.4 1
S1 7 75 lorst 2 0 2 543.8 1
S1 7 76 entree 1 4,658823529 1 491.3 1
S1 7 77 leuze 1 4,4 1 696.6 1
S1 7 78 lonig 2 0 2 467.6 1
S1 7 79 prok 2 0 1 488.8 0
S1 7 80 kereik 2 0 2 519.9 1
S1 7 81 detter 2 0 2 531.1 1
S1 7 82 grijt 2 0 2 447.6 1
S1 7 83 galop 1 4,235294118 1 453.2 1
S1 7 84 hiemen 2 0 2 487.7 1
S1 7 85 tact 1 4,447058824 1 617 1
S1 7 86 divun 2 0 2 473.8 1
S1 7 87 dijp 2 0 1 417.6 0
S1 7 88 blaam 1 1,835294118 2 499.1 0
S1 7 89 loof 1 2,423529412 1 441.8 1
S1 7 90 hilt 2 0 2 521.3 1
S1 7 91 zomers 1 5,482352941 1 472.4 1
S1 7 92 accu 1 1,317647059 1 460.4 1
S1 7 93 puzzel 1 3,647058824 1 526 1
S1 7 94 mank 1 3,788235294 1 522.1 1
S1 7 95 sluis 1 4,211764706 1 576.4 1
S1 7 96 faam 1 5,129411765 1 549.8 1
S1 7 97 gesoe 2 0 2 494.6 1
S1 7 98 schilp 2 0 2 752.2 1
S1 7 99 vlicht 2 0 1 436.3 0
S1 7 100 jorist 2 0 2 555.6 1
S1 7 101 rasijn 2 0 2 455.6 1
S1 7 102 vees 2 0 2 411.3 1
S1 7 103 zoer 2 0 2 473.2 1
S1 7 104 astma 1 3,882352941 1 466.3 1
S1 7 105 remp 2 0 2 504.9 1
S1 7 106 nauw 1 4,470588235 1 526.5 1
S1 7 107 azen 1 1,764705882 1 517.4 1
S1 7 108 album 1 4,094117647 1 457.2 1
S1 7 109 rimboe 1 1,505882353 1 474.5 1
S1 7 110 pion 1 2,117647059 1 520.8 1
S1 7 111 orakel 1 2,517647059 2 470.7 0
S1 7 112 revers 1 2,635294118 2 563.3 0
S1 7 113 ezol 2 0 2 533.5 1
S1 7 114 linter 2 0 2 647.7 1
S1 7 115 agesda 2 0 2 393.1 1
S1 7 116 miegen 2 0 2 545.7 1
S1 7 117 bode 1 3,788235294 2 492.7 0
S1 7 118 spijl 1 3,764705882 2 440.3 0
S1 7 119 dreed 2 0 2 506.5 1
S1 7 120 pach 2 0 1 719.4 0
S1 7 121 krot 1 3,129411764 1 513.6 1
S1 7 122 porto 1 2,305882353 2 541 0
S1 7 123 gedag 1 2,047058824 1 526.2 1
S1 7 124 ontbag 2 0 2 567.2 1
S1 7 125 flunk 2 0 2 511.9 1
S1 7 126 spons 1 4,282352941 2 475.1 0
S1 7 127 kastje 1 3,858823529 1 523.2 1
S1 7 128 lakei 1 2,823529412 1 421.2 1
S1 7 129 pastor 1 2,541176471 1 517 1
S1 7 130 rieten 1 4,258823529 1 535.2 1
S1 7 131 vinnig 1 5,223529412 2 521.7 0
S1 7 132 bagen 2 0 2 462 1
S1 7 133 caak 2 0 2 448.9 1
S1 7 134 klaup 2 0 2 566.6 1
S1 7 135 veeg 1 3,529411765 2 559 0
S1 7 136 mistie 2 0 2 646.2 1
S1 7 137 suber 2 0 2 490.8 1
S1 7 138 bijval 1 3,811764706 1 435.9 1
S1 7 139 knavel 2 0 1 566.9 0
S1 7 140 tiek 2 0 2 436.6 1
S1 7 141 kraal 1 4,305882353 1 446 1
S1 7 142 maars 2 0 1 657.9 0
S1 7 143 lieb 2 0 1 586.5 0
S1 7 144 lyceum 1 3,811764706 1 515.3 1
S1 7 145 huinig 2 0 2 430.8 1
S1 7 146 ruusen 2 0 2 440.8 1
S1 7 147 postes 2 0 2 486.9 1
S1 7 148 vernal 2 0 2 562.7 1
S1 7 149 cier 2 0 2 383.2 1
S1 7 150 hirst 2 0 2 421.2 1
S1 7 151 steppe 1 3,717647059 1 471 1
S1 7 152 forel 1 3,105882353 1 630.9 1
S1 7 153 bankje 1 3,223529412 1 446.7 1
S1 7 154 kuip 1 4,470588235 1 442.7 1
S1 7 155 ledig 1 3,035294118 2 484.1 0
S1 7 156 durst 2 0 2 467.5 1
S1 7 157 klim 1 2,023529412 2 532.3 0
S1 7 158 decar 2 0 2 503.5 1
S1 7 159 welp 1 1,741176471 1 415 1
S1 7 160 zangst 2 0 1 518.2 0
S1 7 161 vocta 2 0 2 403.7 1
S1 7 162 vruger 2 0 2 468.6 1
S1 7 163 senior 1 1,552941176 1 452.2 1
S1 7 164 knol 1 4,470588235 1 435.9 1
S1 7 165 meker 2 0 2 420.2 1
S1 7 166 kremp 2 0 2 551 1
S1 7 167 hendel 1 1,882352941 1 512.4 1
S1 7 168 zindig 2 0 2 470.4 1
S1 7 169 oase 1 3,811764706 1 575.2 1
S1 7 170 danser 1 4,070588235 1 502.4 1
S1 7 171 bult 1 4,211764706 1 482.5 1
S1 7 172 woelig 1 3,6 1 487.7 1
S1 7 173 haaien 1 0,352941176 1 507 1
S1 7 174 polder 1 4,776470588 2 465.8 0
S1 7 175 iptiek 2 0 2 559.9 1
S1 7 176 trio 1 3,223529412 1 536.4 1
S1 7 177 odem 2 0 2 482.5 1
S1 7 178 aupo 2 0 2 472.2 1
S1 7 179 zwaten 2 0 2 478.1 1
S1 7 180 geroep 1 4,141176471 1 477.5 1
S1 7 181 givaar 2 0 2 490.9 1
S1 7 182 waan 1 5,458823529 2 482.2 0
S1 7 183 graak 2 0 1 536.2 0
S1 7 184 laande 2 0 1 479.1 0
S1 7 185 pyfama 2 0 2 482.6 1
S1 7 186 wimpel 1 1,694117647 1 442.4 1
S1 7 187 vaccin 1 0,705882353 1 512 1
S1 7 188 schul 2 0 2 770.2 1
S1 7 189 lijmen 1 5,082352941 1 487.5 1
S1 7 190 afbruk 2 0 2 518.3 1
S1 7 191 stokje 1 3,788235294 1 534.5 1
S1 7 192 hamp 2 0 2 539.6 1
S1 7 193 lappen 1 4,305882353 1 408.7 1
S1 7 194 vlijt 1 2,447058824 1 480 1
S1 7 195 getij 1 3,976470588 1 482.6 1
S1 7 196 schut 1 1,952941176 1 410 1
S1 7 197 smemen 2 0 2 480.4 1
S1 7 198 opiam 2 0 2 418.4 1
S1 7 199 maling 1 2,8 1 500.6 1
S1 7 200 idylle 1 2,423529412 1 463.7 1
S1 7 201 sjaam 2 0 2 473.3 1
S1 7 202 onwaar 1 3,623529412 1 449.9 1
S1 7 203 gemeld 1 4,541176471 2 469 0
S1 7 204 jury 1 3,835294118 2 495.5 0
S1 7 205 paadje 1 1,905882353 1 561.3 1
S1 7 206 imver 2 0 2 409.5 1
S1 7 207 regie 1 2,823529412 1 418.7 1
S1 7 208 strik 1 4,635294118 1 439.4 1
S1 7 209 scheks 2 0 2 462.7 1
S1 7 210 barok 1 2,4 1 432.5 1
S1 7 211 vezel 1 5,482352941 1 581 1
S1 7 212 domweg 1 5,176470588 1 458.8 1
S1 7 213 zanger 1 5,411764706 1 482.3 1
S1 7 214 nuig 2 0 2 430.6 1
S1 7 215 opsten 2 0 2 481.2 1
S1 7 216 bilar 2 0 2 416.9 1
S1 7 217 chloor 1 0,8 1 372.8 1
S1 7 218 koom 2 0 1 354.3 0
S1 7 219 solide 1 5,458823529 2 337.4 0
S1 7 220 krap 1 4,823529412 1 382.9 1
S1 7 221 wijlen 1 3,6 1 395 1
S1 7 222 bortie 2 0 2 439.3 1
S1 7 223 kukker 2 0 2 547.4 1
S1 7 224 index 1 4,941176471 2 496 0
S1 7 225 merg 1 3,741176471 1 473.9 1
S1 7 226 rinden 2 0 1 445.6 0
S1 7 227 wossen 2 0 2 389.4 1
S1 7 228 vargif 2 0 2 427.9 1
S1 7 229 brum 2 0 2 585.1 1
S1 7 230 gilde 1 4,4 1 585.7 1
S1 7 231 butje 2 0 2 455 1
S1 7 232 ploei 2 0 1 507.5 0
S1 7 233 krong 2 0 2 299.3 1
S1 7 234 jurig 2 0 1 388.7 0
S1 7 235 room 1 5,458823529 2 417.4 0
S1 7 236 plaag 1 3,411764706 1 460.5 1
S1 7 237 belk 2 0 2 525.8 1
S1 7 238 lerder 2 0 2 464.6 1
S1 7 239 kwaken 1 2,752941176 2 450 0
S1 7 240 strot 1 4,470588235 2 526.9 0
S1 7 241 tweeze 2 0 2 463.4 1
S1 7 242 amtrek 2 0 2 474.6 1
S1 7 243 hurken 1 3,882352941 2 425.3 0
S1 7 244 clown 1 4,752941176 1 452.4 1
S1 7 245 asfelt 2 0 2 456 1
S1 7 246 parxum 2 0 2 466.6 1
S1 7 247 wuzig 2 0 2 425.2 1
S1 7 248 alkook 2 0 2 488.2 1
S1 7 249 wreef 1 1,905882353 1 540.5 1
S1 7 250 glak 2 0 2 412.7 1
S1 7 251 duik 1 1,929411765 1 576.8 1
S1 7 252 pruken 2 0 2 601 1
S1 7 253 cuur 2 0 2 410.8 1
S1 7 254 lannen 2 0 2 454.8 1
S1 7 255 winven 2 0 2 443.6 1
S1 7 256 pend 2 0 2 409 1
S1 7 257 slee 1 1,035294118 1 411.4 1
S1 7 258 kiedje 2 0 2 471.2 1
S1 7 259 muil 1 3,364705882 2 466.6 0
S1 7 260 helte 2 0 2 543.5 1
S1 7 261 behept 1 2,164705882 2 512.1 0
S1 7 262 guik 2 0 2 463.5 1
S1 7 263 elan 1 3,623529412 2 491.9 0
S1 7 264 peide 2 0 2 441.8 1
S1 7 265 geming 2 0 2 391.6 1
S1 7 266 parket 1 4,258823529 2 437 0
S1 7 267 hark 1 1,529411765 1 427.4 1
S1 7 268 houtje 1 4,894117647 1 462.3 1
S1 7 269 brons 1 2,870588235 1 431.4 1
S1 7 270 staats 1 4,047058824 1 367.7 1
S1 7 271 fiscus 1 3,929411765 1 606.1 1
S1 7 272 vieet 2 0 2 480.4 1
S1 7 273 ralief 2 0 2 472 1
S1 7 274 loyaal 1 4,023529412 1 367.4 1
S1 7 275 eber 2 0 2 428.8 1
S1 7 276 zegel 1 3,529411765 1 394.5 1
S1 7 277 sloert 2 0 2 518.9 1
S1 7 278 glazig 1 4,329411765 1 367.5 1
S1 7 279 vouw 1 3,529411765 1 453.4 1
S1 7 280 hoera 1 3,905882353 1 459.4 1
S1 7 281 armoe 1 3,152941176 1 418.7 1
S1 7 282 orzet 2 0 2 468.8 1
S1 7 283 dikte 1 4,235294118 1 416.8 1
S1 7 284 offen 2 0 2 438.2 1
S1 7 285 typen 1 3,623529412 1 386.2 1
S1 7 286 schork 2 0 2 594.8 1
S1 7 287 toeter 1 1,764705882 1 450.5 1
S1 7 288 fuif 1 1,788235294 1 456.7 1
S1 7 289 boffen 1 2,564705882 1 735.4 1
S1 7 290 snoken 2 0 2 652.1 1
S1 7 291 fasje 2 0 1 415.5 0
S1 7 292 joelen 1 4,352941176 2 194 0
S1 7 293 raspen 1 4,776470588 2 495.7 0
S1 7 294 breik 2 0 2 608 1
S1 7 295 bekker 2 0 2 452 1
S1 7 296 hubeur 2 0 2 394.6 1
S1 7 297 bans 2 0 2 547.9 1
S1 7 298 gezwil 2 0 2 460.3 1
S1 7 299 fesie 2 0 2 493.9 1
S1 7 300 safari 1 1,082352941 1 580.1 1
S1 7 301 orinje 2 0 2 431.6 1
S1 7 302 epele 2 0 2 446.4 1
S1 7 303 melken 1 4,141176471 1 465.8 1
S1 7 304 zuik 2 0 1 415.3 0
S1 7 305 graat 1 2,023529412 2 462.5 0
S1 7 306 murt 2 0 2 522.9 1
S1 7 307 telen 1 2,023529412 1 456.9 1
S1 7 308 zeim 2 0 2 425.3 1
S1 7 309 napen 2 0 2 464.9 1
S1 7 310 fjord 1 3,882352941 2 408.6 0
S1 7 311 geide 2 0 2 611.9 1
S1 7 312 reuk 1 5,388235294 2 510.6 0
S1 7 313 ganre 2 0 1 464.4 0
S1 7 314 gros 1 2,8 1 585.3 1
S1 7 315 wraai 2 0 2 462.5 1
S1 7 316 oloud 2 0 2 508.4 1
S1 7 317 drumer 2 0 1 496.4 0
S1 7 318 morsen 1 4,988235294 2 354.4 0
S1 7 319 trec 2 0 2 491.9 1
S1 7 320 kreek 1 2,588235294 2 467.6 0
S1 7 321 walmen 1 3,576470588 1 456.4 1
S1 7 322 snoet 1 1,741176471 2 612.2 0
S1 7 323 slaw 2 0 2 523.2 1
S1 7 324 ronnik 2 0 2 433 1
S1 7 325 tonnel 2 0 1 502 0
S1 7 326 salode 2 0 1 486.3 0
S1 7 327 noemer 1 4,847058824 1 709.1 1
S1 7 328 pikant 1 5,482352941 1 579.2 1
S1 7 329 konk 2 0 2 503 1
S1 7 330 rier 2 0 2 504.9 1
S1 7 331 korps 1 3,741176471 1 506.9 1
S1 7 332 stoos 2 0 2 464.3 1
S1 7 333 spade 1 1,858823529 2 471.3 0
S1 7 334 sjerp 1 1,458823529 1 544.4 1
S1 7 335 wasbak 1 3,788235294 1 507.1 1
S1 7 336 panter 1 3,529411765 1 478.4 1
S1 7 337 tarwe 1 4,8 1 477.1 1
S1 7 338 lemmet 1 2,635294118 2 486.8 0
S1 7 339 wuren 2 0 2 591.1 1
S1 7 340 zwaluw 1 4,8 1 448.4 1
S1 7 341 zeelde 2 0 1 422.3 0
S1 7 342 allure 1 5,223529412 1 543.5 1
S1 7 343 vlerk 1 1,2 2 519.5 0
S1 7 344 blende 2 0 2 646.6 1
S1 7 345 lomp 1 3,058823529 1 549.5 1
S1 7 346 vioel 2 0 2 526.7 1
S1 7 347 weel 2 0 2 522 1
S1 7 348 proper 1 3,741176471 2 490.8 0
S1 7 349 inlal 2 0 2 552.3 1
S1 7 350 stru 2 0 2 432.1 1
S1 7 351 pluis 1 1,294117647 1 416.6 1
S1 7 352 finds 2 0 2 511.3 1
S1 7 353 moes 1 1,223529412 2 498.6 0
S1 7 354 dagma 2 0 2 503.3 1
S1 7 355 pens 1 2,329411765 1 436.4 1
S1 7 356 prelie 2 0 2 491.1 1
S1 7 357 nijtje 2 0 2 431.4 1
S1 7 358 nijd 1 1,929411765 1 531.7 1
S1 7 359 roen 2 0 2 516.5 1
S1 7 360 sooie 2 0 2 373.8 1
S1 7 361 hoken 2 0 2 486.6 1
S1 7 362 waald 2 0 2 487.7 1
S1 7 363 zinnen 1 4,282352941 1 463 1
S1 7 364 kwiek 1 3,529411765 2 455.6 0
S1 7 365 uitzet 1 1,129411765 1 502.2 1
S1 7 366 aanket 2 0 2 584.4 1
S1 7 367 umloop 2 0 2 495.3 1
S1 7 368 kelom 2 0 2 473.9 1
S1 7 369 stees 2 0 2 576.8 1
S1 7 370 goer 2 0 2 465.3 1
S1 7 371 ferm 1 4,611764706 2 448.1 0
S1 7 372 barmer 2 0 2 493.5 1
S1 7 373 alpoor 2 0 2 524.3 1
S1 7 374 bestak 2 0 1 419.1 0
S1 7 375 tolk 1 4,988235294 1 454.9 1
S1 7 376 nalm 2 0 2 465.8 1
S1 7 377 etoge 2 0 2 462.3 1
S1 7 378 limiet 1 2,588235294 1 446 1
S1 7 379 grocht 2 0 2 759.7 1
S1 7 380 apiche 2 0 2 395.5 1
S1 7 381 wesp 1 4,070588235 1 547.1 1
S1 7 382 zondje 2 0 2 398.5 1
S1 7 383 sloep 1 5,388235294 1 411.5 1
S1 7 384 stiem 2 0 2 560 1
S1 7 385 zide 2 0 2 486.9 1
S1 7 386 eicel 1 5,411764706 2 388.5 0
S1 7 387 kapje 1 2,023529412 1 585.7 1
S1 7 388 ruipen 2 0 2 398.6 1
S1 7 389 tekje 2 0 1 589.9 0
S1 7 390 optie 1 2,823529412 1 548.4 1
S1 7 391 gaag 2 0 1 439.9 0
S1 7 392 hang 1 3,623529412 2 285.6 0
S1 7 393 boeran 2 0 2 546.8 1
S1 7 394 proei 2 0 2 462.4 1
S1 7 395 cement 1 4,329411765 1 471.8 1
S1 7 396 dynamo 1 0,729411765 1 443.6 1
S1 7 397 kokend 1 3,952941176 1 521.3 1
S1 7 398 cultus 1 5,482352941 1 444.8 1
S1 7 399 invoer 1 5,435294118 1 524 1
S1 7 400 kluis 1 4,494117647 1 506.7 1
S1 8 1 sjerp 1 1,458823529 1 541.2 1
S1 8 2 zangst 2 0 1 345.6 0
S1 8 3 pyfama 2 0 2 498.4 1
S1 8 4 ledig 1 3,035294118 2 521.8 0
S1 8 5 vlerk 1 1,2 1 488.8 1
S1 8 6 honen 1 5,247058824 2 566.5 0
S1 8 7 bankje 1 3,223529412 1 476 1
S1 8 8 roen 2 0 2 519.9 1
S1 8 9 vlicht 2 0 2 515.3 1
S1 8 10 salode 2 0 2 480.8 1
S1 8 11 accu 1 1,317647059 1 485.1 1
S1 8 12 zegel 1 3,529411765 1 530.5 1
S1 8 13 morsen 1 4,988235294 1 563.1 1
S1 8 14 smemen 2 0 2 530.7 1
S1 8 15 offen 2 0 1 493.2 0
S1 8 16 spleef 2 0 2 415.4 1
S1 8 17 nuig 2 0 2 544.1 1
S1 8 18 zindig 2 0 2 549.9 1
S1 8 19 gezwil 2 0 2 552 1
S1 8 20 epele 2 0 2 463.7 1
S1 8 21 galop 1 4,235294118 1 477.5 1
S1 8 22 ronnik 2 0 2 476.9 1
S1 8 23 belug 2 0 2 450.6 1
S1 8 24 bans 2 0 2 474.2 1
S1 8 25 invoer 1 5,435294118 1 453.5 1
S1 8 26 borg 1 2,847058824 1 579.7 1
S1 8 27 parxum 2 0 2 426.4 1
S1 8 28 toorn 1 4,282352941 1 510.2 1
S1 8 29 ripen 2 0 2 478 1
S1 8 30 kers 1 4,658823529 1 480 1
S1 8 31 onwaar 1 3,623529412 1 528.8 1
S1 8 32 fuif 1 1,788235294 1 720.4 1
S1 8 33 vaccin 1 0,705882353 1 470.9 1
S1 8 34 bortie 2 0 2 500.2 1
S1 8 35 nalm 2 0 2 509.1 1
S1 8 36 ralief 2 0 2 493 1
S1 8 37 birst 2 0 2 476 1
S1 8 38 solide 1 5,458823529 2 464.2 0
S1 8 39 etmaal 1 4,752941176 1 521.1 1
S1 8 40 elan 1 3,623529412 2 454 0
S1 8 41 sjaam 2 0 1 648 0
S1 8 42 dijp 2 0 2 684.9 1
S1 8 43 spons 1 4,282352941 1 516.6 1
S1 8 44 pach 2 0 2 549.4 1
S1 8 45 gewend 1 1,576470588 1 482.1 1
S1 8 46 dagma 2 0 2 508.4 1
S1 8 47 bode 1 3,788235294 2 531.9 0
S1 8 48 drumer 2 0 2 694.9 1
S1 8 49 album 1 4,094117647 1 461.7 1
S1 8 50 breik 2 0 2 471.9 1
S1 8 51 pikant 1 5,482352941 1 571.9 1
S1 8 52 paadje 1 1,905882353 1 690.8 1
S1 8 53 wasbak 1 3,788235294 1 476.6 1
S1 8 54 bluier 2 0 2 516.5 1
S1 8 55 smeris 1 5,341176471 1 469.1 1
S1 8 56 weel 2 0 2 546.1 1
S1 8 57 dreed 2 0 2 539.9 1
S1 8 58 pastor 1 2,541176471 1 524.7 1
S1 8 59 clown 1 4,752941176 1 414.6 1
S1 8 60 proei 2 0 2 687.5 1
S1 8 61 hoken 2 0 2 464.2 1
S1 8 62 laande 2 0 2 429.2 1
S1 8 63 draf 1 3,811764706 1 579.2 1
S1 8 64 strot 1 4,470588235 2 398.1 0
S1 8 65 ruipen 2 0 1 468.5 0
S1 8 66 uven 2 0 2 430.8 1
S1 8 67 deman 2 0 2 491.6 1
S1 8 68 trio 1 3,223529412 1 415.1 1
S1 8 69 haaien 1 0,352941176 1 469.2 1
S1 8 70 danser 1 4,070588235 1 477.1 1
S1 8 71 plaag 1 3,411764706 1 442.8 1
S1 8 72 hubeur 2 0 2 449.1 1
S1 8 73 kreek 1 2,588235294 2 487.6 0
S1 8 74 vioel 2 0 2 489.7 1
S1 8 75 brons 1 2,870588235 1 515.8 1
S1 8 76 plauw 2 0 2 597 1
S1 8 77 detter 2 0 2 458 1
S1 8 78 bever 1 1,176470588 1 527.1 1
S1 8 79 kapje 1 2,023529412 1 454.4 1
S1 8 80 vargif 2 0 2 434.7 1
S1 8 81 vees 2 0 2 517.5 1
S1 8 82 schilp 2 0 2 623.7 1
S1 8 83 fasje 2 0 2 468.7 1
S1 8 84 lappen 1 4,305882353 2 425.1 0
S1 8 85 pend 2 0 2 497.1 1
S1 8 86 chloor 1 0,8 1 465.2 1
S1 8 87 gros 1 2,8 1 515.1 1
S1 8 88 remp 2 0 2 619 1
S1 8 89 spijl 1 3,764705882 1 448.5 1
S1 8 90 suber 2 0 2 495.5 1
S1 8 91 civiek 2 0 2 452.4 1
S1 8 92 flunk 2 0 2 471.7 1
S1 8 93 orinje 2 0 2 453.2 1
S1 8 94 vruger 2 0 2 518.9 1
S1 8 95 hark 1 1,529411765 2 498.3 0
S1 8 96 azen 1 1,764705882 1 479 1
S1 8 97 fjord 1 3,882352941 1 445.6 1
S1 8 98 allure 1 5,223529412 1 645.5 1
S1 8 99 pluis 1 1,294117647 1 576.6 1
S1 8 100 tweeze 2 0 2 501.3 1
S1 8 101 idylle 1 2,423529412 1 463.7 1
S1 8 102 vernal 2 0 2 518.1 1
S1 8 103 zondje 2 0 2 450.1 1
S1 8 104 tact 1 4,447058824 1 454.4 1
S1 8 105 hiemen 2 0 2 476.1 1
S1 8 106 deppen 1 1,6 2 384 0
S1 8 107 domweg 1 5,176470588 1 464.5 1
S1 8 108 nauw 1 4,470588235 2 498.3 0
S1 8 109 orakel 1 2,517647059 1 426 1
S1 8 110 hilt 2 0 2 453.2 1
S1 8 111 kwiek 1 3,529411765 2 456.1 0
S1 8 112 barok 1 2,4 1 444.9 1
S1 8 113 tobben 1 5,011764706 1 447.6 1
S1 8 114 nijd 1 1,929411765 1 568.7 1
S1 8 115 geming 2 0 2 520.9 1
S1 8 116 hendel 1 1,882352941 1 530.5 1
S1 8 117 reen 2 0 2 427.9 1
S1 8 118 mopen 2 0 1 430.1 0
S1 8 119 wuren 2 0 2 380.6 1
S1 8 120 rieten 1 4,258823529 1 676.7 1
S1 8 121 cement 1 4,329411765 2 423.9 0
S1 8 122 glazig 1 4,329411765 2 599.5 0
S1 8 123 senior 1 1,552941176 1 593.9 1
S1 8 124 gesoe 2 0 2 448.2 1
S1 8 125 wuzig 2 0 1 508.4 0
S1 8 126 zoer 2 0 2 521 1
S1 8 127 tekje 2 0 2 564.2 1
S1 8 128 eber 2 0 2 488.3 1
S1 8 129 peide 2 0 2 466.3 1
S1 8 130 stru 2 0 2 412.7 1
S1 8 131 stokje 1 3,788235294 1 548.3 1
S1 8 132 sloep 1 5,388235294 1 514.5 1
S1 8 133 moes 1 1,223529412 1 442.6 1
S1 8 134 duik 1 1,929411765 1 492.8 1
S1 8 135 optie 1 2,823529412 2 467 0
S1 8 136 ganre 2 0 2 578.5 1
S1 8 137 sloert 2 0 1 565.6 0
S1 8 138 jargon 1 4,094117647 1 559.3 1
S1 8 139 kablet 2 0 2 476.9 1
S1 8 140 hang 1 3,623529412 1 542.1 1
S1 8 141 huinig 2 0 2 444.2 1
S1 8 142 vezel 1 5,482352941 1 412 1
S1 8 143 prok 2 0 1 501.4 0
S1 8 144 hoera 1 3,905882353 2 553.3 0
S1 8 145 steppe 1 3,717647059 1 617.3 1
S1 8 146 snoken 2 0 2 670.7 1
S1 8 147 vouw 1 3,529411765 1 502 1
S1 8 148 leuze 1 4,4 2 458.1 0
S1 8 149 waald 2 0 2 631.4 1
S1 8 150 kodeet 2 0 2 569.1 1
S1 8 151 moelas 2 0 2 485.4 1
S1 8 152 postes 2 0 2 672 1
S1 8 153 kuip 1 4,470588235 1 418.3 1
S1 8 154 bult 1 4,211764706 2 469.5 0
S1 8 155 bekker 2 0 2 597.8 1
S1 8 156 parket 1 4,258823529 1 519.9 1
S1 8 157 uitzet 1 1,129411765 1 558.4 1
S1 8 158 apiche 2 0 2 472.4 1
S1 8 159 wokker 2 0 1 825.4 0
S1 8 160 kraal 1 4,305882353 1 459.9 1
S1 8 161 zuik 2 0 2 520.6 1
S1 8 162 wraai 2 0 1 471.3 0
S1 8 163 snik 1 4 1 515.9 1
S1 8 164 zwaten 2 0 2 615.9 1
S1 8 165 noek 2 0 2 463.9 1
S1 8 166 reuk 1 5,388235294 1 668.2 1
S1 8 167 goer 2 0 2 685.5 1
S1 8 168 trec 2 0 2 456.7 1
S1 8 169 kelom 2 0 2 476 1
S1 8 170 snoet 1 1,741176471 1 588.5 1
S1 8 171 sessie 1 3,176470588 1 476.8 1
S1 8 172 guik 2 0 2 501.1 1
S1 8 173 beding 1 4,329411765 2 525.3 0
S1 8 174 wossen 2 0 2 718.8 1
S1 8 175 muil 1 3,364705882 1 439.1 1
S1 8 176 doer 2 0 2 431.8 1
S1 8 177 zuid 1 4,705882353 1 491.5 1
S1 8 178 opsten 2 0 1 492.6 0
S1 8 179 vieet 2 0 2 492.5 1
S1 8 180 kajel 2 0 2 434.7 1
S1 8 181 loof 1 2,423529412 2 497 0
S1 8 182 angel 1 4,517647059 1 538.6 1
S1 8 183 sooie 2 0 2 544.9 1
S1 8 184 charte 2 0 2 492.9 1
S1 8 185 ontbag 2 0 2 502.3 1
S1 8 186 ferm 1 4,611764706 2 519.4 0
S1 8 187 schul 2 0 1 636.4 0
S1 8 188 krot 1 3,129411764 1 541.7 1
S1 8 189 safari 1 1,082352941 1 535.4 1
S1 8 190 grocht 2 0 1 414.6 0
S1 8 191 puilen 1 4,682352941 2 424.8 0
